Frequency (Hz)	Level (dB)
86.132813	-58.453968
172.265625	-58.219528
258.398438	-61.318104
344.531250	-66.698006
430.664063	-70.158676
516.796875	-67.888062
602.929688	-67.289093
689.062500	-67.538498
775.195313	-67.585205
861.328125	-69.472000
947.460938	-71.668968
1033.593750	-73.490532
1119.726563	-73.378159
1205.859375	-71.591728
1291.992188	-67.487854
1378.125000	-55.133320
1464.257813	-52.287571
1550.390625	-55.912949
1636.523438	-61.908665
1722.656250	-70.211342
1808.789063	-81.567894
1894.921875	-77.745392
1981.054688	-71.603348
2067.187500	-69.728386
2153.320313	-69.063911
2239.453125	-68.642609
2325.585938	-65.610847
2411.718750	-59.886017
2497.851563	-57.820328
2583.984375	-62.699265
2670.117188	-63.533237
2756.250000	-63.097218
2842.382813	-65.067886
2928.515625	-65.563957
3014.648438	-66.196243
3100.781250	-67.958694
3186.914063	-70.253616
3273.046875	-70.766510
3359.179688	-73.358574
3445.312500	-69.340569
3531.445313	-62.103973
3617.578125	-55.789314
3703.710938	-54.673210
3789.843750	-59.345757
3875.976563	-64.559868
3962.109375	-65.561363
4048.242188	-60.422493
4134.375000	-56.870949
4220.507813	-56.150131
4306.640625	-58.077477
4392.773438	-61.417336
4478.906250	-65.169357
4565.039063	-67.456543
4651.171875	-67.188400
4737.304688	-62.362251
4823.437500	-55.187531
4909.570313	-54.353439
4995.703125	-58.042908
5081.835938	-59.882042
5167.968750	-60.882011
5254.101563	-65.038658
5340.234375	-75.719505
5426.367188	-75.353485
5512.500000	-73.245293
5598.632813	-72.187988
5684.765625	-70.105865
5770.898438	-68.771614
5857.031250	-72.715416
5943.164063	-77.674179
6029.296875	-78.449486
6115.429688	-78.112953
6201.562500	-75.129532
6287.695313	-74.915482
6373.828125	-75.489578
6459.960938	-75.718910
6546.093750	-79.396286
6632.226563	-88.210022
6718.359375	-96.593224
6804.492188	-92.678551
6890.625000	-87.532593
6976.757813	-88.185242
7062.890625	-91.522324
7149.023438	-87.886269
7235.156250	-88.755951
7321.289063	-82.382156
7407.421875	-78.641624
7493.554688	-75.883774
7579.687500	-73.251465
7665.820313	-71.550270
7751.953125	-69.248894
7838.085938	-66.382813
7924.218750	-64.092216
8010.351563	-63.874306
8096.484375	-67.667892
8182.617188	-76.635803
8268.750000	-84.295876
8354.882813	-85.740311
8441.015625	-85.385262
8527.148438	-86.209412
8613.281250	-88.327988
8699.414063	-90.033714
8785.546875	-92.537216
8871.679688	-93.731308
8957.812500	-98.004646
9043.945313	-92.664093
9130.078125	-85.824150
9216.210938	-80.696960
9302.343750	-76.767853
9388.476563	-75.522629
9474.609375	-76.401878
9560.742188	-79.839104
9646.875000	-79.850906
9733.007813	-75.849686
9819.140625	-74.084808
9905.273438	-72.362778
9991.406250	-71.347618
10077.539063	-72.913879
10163.671875	-70.085220
10249.804688	-67.382431
10335.937500	-68.877808
10422.070313	-73.523438
10508.203125	-76.556366
10594.335938	-78.211906
10680.468750	-81.878838
10766.601563	-84.871498
10852.734375	-89.307999
10938.867188	-82.141899
11025.000000	-76.324615
11111.132813	-75.093170
11197.265625	-77.085335
11283.398438	-78.121307
11369.531250	-75.879005
11455.664063	-75.501823
11541.796875	-77.641983
11627.929688	-80.698151
11714.062500	-85.065475
11800.195313	-90.459702
11886.328125	-87.150299
11972.460938	-87.922279
12058.593750	-92.453926
12144.726563	-96.037224
12230.859375	-90.853920
12316.992188	-90.396454
12403.125000	-93.847252
12489.257813	-96.819420
12575.390625	-96.661453
12661.523438	-95.024918
12747.656250	-94.101723
12833.789063	-95.520836
12919.921875	-99.118210
13006.054688	-102.823898
13092.187500	-101.911858
13178.320313	-101.505318
13264.453125	-104.090370
13350.585938	-106.855621
13436.718750	-106.768501
13522.851563	-102.849182
13608.984375	-100.260422
13695.117188	-101.131584
13781.250000	-107.770111
13867.382813	-104.642586
13953.515625	-99.262260
14039.648438	-98.492844
14125.781250	-96.844788
14211.914063	-93.727692
14298.046875	-91.899803
14384.179688	-89.531647
14470.312500	-87.411232
14556.445313	-86.389870
14642.578125	-87.266640
14728.710938	-91.393257
14814.843750	-97.820236
14900.976563	-97.393044
14987.109375	-97.504227
15073.242188	-97.665733
15159.375000	-97.400253
15245.507813	-96.644379
15331.640625	-95.204056
15417.773438	-95.608063
15503.906250	-98.322495
15590.039063	-101.621910
15676.171875	-104.225487
15762.304688	-105.696167
15848.437500	-108.652351
15934.570313	-118.858017
16020.703125	-109.305443
16106.835938	-107.349022
16192.968750	-108.905449
16279.101563	-110.678711
16365.234375	-112.295006
16451.367188	-112.206154
16537.500000	-114.116081
16623.632813	-123.479454
16709.765625	-114.193550
16795.898438	-112.903931
16882.031250	-112.537766
16968.164063	-111.177780
17054.296875	-110.981476
17140.429688	-110.362007
17226.562500	-110.677498
17312.695313	-113.054199
17398.828125	-115.065254
17484.960938	-117.269760
17571.093750	-122.227661
17657.226563	-118.999916
17743.359375	-117.102028
17829.492188	-119.706139
17915.625000	-117.027023
18001.757813	-114.738243
18087.890625	-116.576981
18174.023438	-119.042953
18260.156250	-117.330414
18346.289063	-115.858879
18432.421875	-117.530449
18518.554688	-120.503395
18604.687500	-122.521721
18690.820313	-123.452423
18776.953125	-125.898949
18863.085938	-127.321457
18949.218750	-124.168732
19035.351563	-121.598686
19121.484375	-120.940979
19207.617188	-123.651131
19293.750000	-128.407745
19379.882813	-127.104713
19466.015625	-125.740341
19552.148438	-129.078903
19638.281250	-127.981453
19724.414063	-126.361229
19810.546875	-126.695267
19896.679688	-126.925179
19982.812500	-131.392990
20068.945313	-132.385025
20155.078125	-132.042969
20241.210938	-134.614395
20327.343750	-135.744186
20413.476563	-134.903183
20499.609375	-135.095901
20585.742188	-136.557953
20671.875000	-136.768646
20758.007813	-138.140594
20844.140625	-137.887726
20930.273438	-140.275131
21016.406250	-140.816620
21102.539063	-143.146301
21188.671875	-143.741257
21274.804688	-145.919830
21360.937500	-147.382248
21447.070313	-150.131104
21533.203125	-151.508865
21619.335938	-152.186188
21705.468750	-154.570389
21791.601563	-157.401749
21877.734375	-157.506454
21963.867188	-158.731064
