Frequency (Hz)	Level (dB)
86.132813	-49.943954
172.265625	-51.484432
258.398438	-58.068245
344.531250	-62.367359
430.664063	-65.999214
516.796875	-63.801018
602.929688	-64.802338
689.062500	-60.212883
775.195313	-59.644283
861.328125	-64.123764
947.460938	-66.933662
1033.593750	-68.854012
1119.726563	-68.926788
1205.859375	-66.082420
1291.992188	-62.090214
1378.125000	-52.574108
1464.257813	-49.258389
1550.390625	-53.773457
1636.523438	-59.462948
1722.656250	-60.876450
1808.789063	-59.612484
1894.921875	-58.006462
1981.054688	-53.564018
2067.187500	-56.496536
2153.320313	-68.794899
2239.453125	-69.984039
2325.585938	-68.114288
2411.718750	-68.717201
2497.851563	-70.521248
2583.984375	-68.478149
2670.117188	-69.718956
2756.250000	-74.325600
2842.382813	-77.801826
2928.515625	-74.438644
3014.648438	-72.510162
3100.781250	-72.949547
3186.914063	-75.700867
3273.046875	-74.631210
3359.179688	-72.913536
3445.312500	-74.730316
3531.445313	-70.164841
3617.578125	-61.669224
3703.710938	-60.208473
3789.843750	-67.300758
3875.976563	-73.630127
3962.109375	-72.313164
4048.242188	-74.042435
4134.375000	-68.119118
4220.507813	-69.107567
4306.640625	-76.192970
4392.773438	-79.218208
4478.906250	-79.239326
4565.039063	-81.731438
4651.171875	-85.649261
4737.304688	-79.771370
4823.437500	-74.436180
4909.570313	-75.749191
4995.703125	-82.721458
5081.835938	-81.005066
5167.968750	-75.132484
5254.101563	-74.310623
5340.234375	-82.201988
5426.367188	-78.358307
5512.500000	-76.343781
5598.632813	-78.293999
5684.765625	-76.009247
5770.898438	-69.131058
5857.031250	-67.444344
5943.164063	-67.364815
6029.296875	-68.692276
6115.429688	-70.877335
6201.562500	-70.800140
6287.695313	-71.449448
6373.828125	-77.543732
6459.960938	-74.758553
6546.093750	-75.675598
6632.226563	-78.692039
6718.359375	-82.182686
6804.492188	-82.498138
6890.625000	-79.497093
6976.757813	-75.318413
7062.890625	-74.237213
7149.023438	-79.057037
7235.156250	-77.123840
7321.289063	-74.603081
7407.421875	-76.555016
7493.554688	-76.728844
7579.687500	-77.833626
7665.820313	-78.210236
7751.953125	-78.319321
7838.085938	-72.838799
7924.218750	-69.031609
8010.351563	-68.366959
8096.484375	-73.100456
8182.617188	-77.756844
8268.750000	-77.612556
8354.882813	-77.064079
8441.015625	-76.181168
8527.148438	-78.746078
8613.281250	-83.088013
8699.414063	-86.565346
8785.546875	-93.274178
8871.679688	-93.699593
8957.812500	-87.039948
9043.945313	-84.335114
9130.078125	-87.391403
9216.210938	-91.251274
9302.343750	-88.484093
9388.476563	-91.490311
9474.609375	-93.376274
9560.742188	-96.973206
9646.875000	-100.134056
9733.007813	-96.625641
9819.140625	-97.275269
9905.273438	-91.628670
9991.406250	-86.775917
10077.539063	-88.248642
10163.671875	-93.661095
10249.804688	-95.799103
10335.937500	-98.206360
10422.070313	-96.079735
10508.203125	-97.976471
10594.335938	-96.667084
10680.468750	-92.505020
10766.601563	-89.156807
10852.734375	-88.763603
10938.867188	-93.509094
11025.000000	-100.230095
11111.132813	-95.786057
11197.265625	-91.438652
11283.398438	-89.467865
11369.531250	-89.769707
11455.664063	-92.479813
11541.796875	-95.509583
11627.929688	-102.168411
11714.062500	-94.343758
11800.195313	-90.228020
11886.328125	-91.776749
11972.460938	-98.043877
12058.593750	-93.484818
12144.726563	-93.858620
12230.859375	-95.952782
12316.992188	-95.669525
12403.125000	-96.612572
12489.257813	-94.216438
12575.390625	-97.645126
12661.523438	-97.616684
12747.656250	-96.325920
12833.789063	-98.783760
12919.921875	-100.429276
13006.054688	-95.581314
13092.187500	-95.281273
13178.320313	-99.212990
13264.453125	-101.755066
13350.585938	-101.008301
13436.718750	-98.823929
13522.851563	-97.237923
13608.984375	-96.567429
13695.117188	-98.110245
13781.250000	-102.326424
13867.382813	-110.987518
13953.515625	-106.774338
14039.648438	-104.418747
14125.781250	-103.364769
14211.914063	-102.014702
14298.046875	-100.745361
14384.179688	-104.212883
14470.312500	-105.213058
14556.445313	-105.244110
14642.578125	-99.458961
14728.710938	-96.798439
14814.843750	-95.659050
14900.976563	-92.293198
14987.109375	-92.456497
15073.242188	-94.577049
15159.375000	-97.060753
15245.507813	-102.209946
15331.640625	-103.552925
15417.773438	-99.495331
15503.906250	-98.886543
15590.039063	-103.222374
15676.171875	-100.909744
15762.304688	-95.320145
15848.437500	-95.188614
15934.570313	-95.002014
16020.703125	-95.039169
16106.835938	-98.783546
16192.968750	-104.207748
16279.101563	-108.446548
16365.234375	-102.668022
16451.367188	-100.518967
16537.500000	-100.400261
16623.632813	-102.429741
16709.765625	-107.649628
16795.898438	-104.343300
16882.031250	-102.625229
16968.164063	-103.851379
17054.296875	-106.931610
17140.429688	-101.809128
17226.562500	-97.506615
17312.695313	-98.446976
17398.828125	-99.679108
17484.960938	-98.910149
17571.093750	-97.941032
17657.226563	-97.541748
17743.359375	-100.472336
17829.492188	-101.522980
17915.625000	-99.516006
18001.757813	-99.029854
18087.890625	-97.341705
18174.023438	-97.120712
18260.156250	-102.898392
18346.289063	-100.241432
18432.421875	-99.901962
18518.554688	-105.455582
18604.687500	-106.075256
18690.820313	-104.121689
18776.953125	-105.111794
18863.085938	-106.872345
18949.218750	-101.900711
19035.351563	-99.791702
19121.484375	-103.855064
19207.617188	-104.658508
19293.750000	-104.956795
19379.882813	-109.812439
19466.015625	-107.588646
19552.148438	-109.332626
19638.281250	-111.170425
19724.414063	-107.256706
19810.546875	-112.535683
19896.679688	-109.416100
19982.812500	-105.806152
20068.945313	-108.159729
20155.078125	-113.672867
20241.210938	-122.469040
20327.343750	-112.210297
20413.476563	-109.113724
20499.609375	-109.386665
20585.742188	-112.410767
20671.875000	-116.857780
20758.007813	-119.740105
20844.140625	-126.297668
20930.273438	-132.821808
21016.406250	-125.672234
21102.539063	-123.001305
21188.671875	-121.372711
21274.804688	-122.956528
21360.937500	-128.260971
21447.070313	-133.292618
21533.203125	-135.156387
21619.335938	-140.151825
21705.468750	-140.916885
21791.601563	-148.559586
21877.734375	-151.829559
21963.867188	-151.090790
