Frequency (Hz)	Level (dB)
86.132813	-49.567562
172.265625	-51.708988
258.398438	-59.923553
344.531250	-63.237999
430.664063	-66.164536
516.796875	-58.650036
602.929688	-56.573948
689.062500	-60.351219
775.195313	-65.525360
861.328125	-67.358162
947.460938	-67.329628
1033.593750	-67.410957
1119.726563	-64.833458
1205.859375	-61.231014
1291.992188	-50.960625
1378.125000	-48.714630
1464.257813	-55.346161
1550.390625	-60.960716
1636.523438	-62.822338
1722.656250	-61.724472
1808.789063	-60.465572
1894.921875	-60.167015
1981.054688	-57.454453
2067.187500	-62.203289
2153.320313	-62.273609
2239.453125	-57.882179
2325.585938	-61.635296
2411.718750	-68.102348
2497.851563	-68.636536
2583.984375	-71.154327
2670.117188	-76.411537
2756.250000	-77.334930
2842.382813	-75.961983
2928.515625	-76.455086
3014.648438	-75.688675
3100.781250	-72.609947
3186.914063	-69.478668
3273.046875	-68.797836
3359.179688	-67.984352
3445.312500	-70.419502
3531.445313	-71.868965
3617.578125	-72.392845
3703.710938	-73.567047
3789.843750	-67.519798
3875.976563	-64.647011
3962.109375	-68.013931
4048.242188	-78.065628
4134.375000	-80.316093
4220.507813	-78.031708
4306.640625	-81.741478
4392.773438	-78.046898
4478.906250	-77.281219
4565.039063	-76.322647
4651.171875	-64.796364
4737.304688	-61.679813
4823.437500	-61.807770
4909.570313	-61.571907
4995.703125	-68.168823
5081.835938	-70.496658
5167.968750	-73.522598
5254.101563	-79.994499
5340.234375	-78.115822
5426.367188	-76.920189
5512.500000	-76.860229
5598.632813	-78.690056
5684.765625	-71.440651
5770.898438	-66.405807
5857.031250	-68.223206
5943.164063	-78.117409
6029.296875	-77.823753
6115.429688	-78.013977
6201.562500	-77.078766
6287.695313	-78.205772
6373.828125	-75.209167
6459.960938	-75.891426
6546.093750	-84.481209
6632.226563	-84.596313
6718.359375	-83.566895
6804.492188	-88.913734
6890.625000	-89.674446
6976.757813	-83.070694
7062.890625	-82.116104
7149.023438	-86.049828
7235.156250	-87.861496
7321.289063	-85.407372
7407.421875	-78.329803
7493.554688	-74.338165
7579.687500	-75.936325
7665.820313	-83.078476
7751.953125	-78.718239
7838.085938	-73.958649
7924.218750	-75.037750
8010.351563	-81.145821
8096.484375	-85.271942
8182.617188	-82.651794
8268.750000	-79.218910
8354.882813	-80.011017
8441.015625	-89.676910
8527.148438	-83.215881
8613.281250	-82.669769
8699.414063	-86.253448
8785.546875	-87.574890
8871.679688	-88.576523
8957.812500	-89.395226
9043.945313	-88.100327
9130.078125	-81.552116
9216.210938	-82.573715
9302.343750	-84.849564
9388.476563	-86.815636
9474.609375	-86.210587
9560.742188	-87.075844
9646.875000	-89.899940
9733.007813	-95.235329
9819.140625	-95.232887
9905.273438	-94.462395
9991.406250	-92.583015
10077.539063	-95.391663
10163.671875	-98.006615
10249.804688	-95.780174
10335.937500	-98.253136
10422.070313	-101.468521
10508.203125	-99.825409
10594.335938	-103.483116
10680.468750	-103.276901
10766.601563	-103.409279
10852.734375	-99.295555
10938.867188	-98.748932
11025.000000	-97.201653
11111.132813	-97.420555
11197.265625	-103.830582
11283.398438	-101.852440
11369.531250	-99.258698
11455.664063	-96.331612
11541.796875	-96.785095
11627.929688	-102.437431
11714.062500	-99.137108
11800.195313	-100.494507
11886.328125	-103.561096
11972.460938	-101.427460
12058.593750	-95.559677
12144.726563	-94.787163
12230.859375	-99.811897
12316.992188	-94.249260
12403.125000	-93.482735
12489.257813	-97.344688
12575.390625	-95.749924
12661.523438	-91.022820
12747.656250	-90.677513
12833.789063	-93.650734
12919.921875	-98.430923
13006.054688	-97.433601
13092.187500	-94.065277
13178.320313	-93.276199
13264.453125	-96.068398
13350.585938	-95.772919
13436.718750	-96.489128
13522.851563	-102.920853
13608.984375	-104.191780
13695.117188	-102.121483
13781.250000	-100.676971
13867.382813	-102.116394
13953.515625	-106.640945
14039.648438	-99.178772
14125.781250	-95.199905
14211.914063	-99.506287
14298.046875	-99.136909
14384.179688	-96.541847
14470.312500	-92.337280
14556.445313	-89.920425
14642.578125	-92.495163
14728.710938	-97.934654
14814.843750	-94.326897
14900.976563	-90.120369
14987.109375	-92.520317
15073.242188	-100.628479
15159.375000	-98.862000
15245.507813	-95.170914
15331.640625	-95.058723
15417.773438	-93.751060
15503.906250	-93.247726
15590.039063	-94.111420
15676.171875	-94.811371
15762.304688	-99.584373
15848.437500	-100.971283
15934.570313	-98.001343
16020.703125	-99.331429
16106.835938	-100.253777
16192.968750	-98.069839
16279.101563	-96.423637
16365.234375	-93.360580
16451.367188	-94.998268
16537.500000	-100.163765
16623.632813	-92.907181
16709.765625	-92.708168
16795.898438	-97.671776
16882.031250	-99.690842
16968.164063	-95.937004
17054.296875	-97.306900
17140.429688	-94.346062
17226.562500	-95.293289
17312.695313	-101.648880
17398.828125	-100.940308
17484.960938	-103.133034
17571.093750	-99.131439
17657.226563	-97.089905
17743.359375	-97.541801
17829.492188	-96.118324
17915.625000	-100.800087
18001.757813	-97.927879
18087.890625	-99.077454
18174.023438	-98.884895
18260.156250	-95.875366
18346.289063	-95.339668
18432.421875	-100.151756
18518.554688	-102.595268
18604.687500	-99.850883
18690.820313	-98.975136
18776.953125	-99.749031
18863.085938	-100.161911
18949.218750	-102.817650
19035.351563	-107.290642
19121.484375	-107.990875
19207.617188	-110.590645
19293.750000	-108.781776
19379.882813	-108.739540
19466.015625	-109.288696
19552.148438	-110.964867
19638.281250	-113.266754
19724.414063	-116.286858
19810.546875	-114.980392
19896.679688	-110.037682
19982.812500	-109.663406
20068.945313	-115.027519
20155.078125	-114.927406
20241.210938	-113.459709
20327.343750	-115.387573
20413.476563	-118.761414
20499.609375	-112.470375
20585.742188	-111.169914
20671.875000	-114.000603
20758.007813	-116.018173
20844.140625	-116.655823
20930.273438	-120.858696
21016.406250	-130.236771
21102.539063	-134.337753
21188.671875	-127.333755
21274.804688	-125.449837
21360.937500	-129.841949
21447.070313	-134.061661
21533.203125	-136.029297
21619.335938	-139.259460
21705.468750	-143.667450
21791.601563	-144.230713
21877.734375	-147.979858
21963.867188	-143.570511
