Frequency (Hz)	Level (dB)
86.132813	-46.805927
172.265625	-49.213844
258.398438	-57.698940
344.531250	-60.053524
430.664063	-63.288700
516.796875	-57.827072
602.929688	-56.962563
689.062500	-61.003479
775.195313	-60.918243
861.328125	-63.206112
947.460938	-64.783371
1033.593750	-65.911163
1119.726563	-64.788162
1205.859375	-62.133404
1291.992188	-57.268684
1378.125000	-50.783386
1464.257813	-48.136909
1550.390625	-52.617771
1636.523438	-59.274410
1722.656250	-61.400551
1808.789063	-62.970112
1894.921875	-71.096451
1981.054688	-64.621284
2067.187500	-63.769684
2153.320313	-69.283401
2239.453125	-73.443260
2325.585938	-72.301399
2411.718750	-64.798080
2497.851563	-61.109257
2583.984375	-68.534447
2670.117188	-70.564903
2756.250000	-72.711433
2842.382813	-73.061707
2928.515625	-73.300751
3014.648438	-74.977760
3100.781250	-79.261383
3186.914063	-75.994850
3273.046875	-75.539093
3359.179688	-75.152199
3445.312500	-76.571411
3531.445313	-81.627121
3617.578125	-81.944046
3703.710938	-72.448326
3789.843750	-67.006783
3875.976563	-67.586128
3962.109375	-76.392487
4048.242188	-73.861115
4134.375000	-72.183861
4220.507813	-72.177597
4306.640625	-71.271019
4392.773438	-76.597794
4478.906250	-79.937210
4565.039063	-74.945869
4651.171875	-65.407768
4737.304688	-63.205315
4823.437500	-60.199123
4909.570313	-59.024982
4995.703125	-65.275421
5081.835938	-71.930260
5167.968750	-70.374550
5254.101563	-73.052574
5340.234375	-74.585625
5426.367188	-71.399300
5512.500000	-78.206223
5598.632813	-76.910027
5684.765625	-79.711357
5770.898438	-73.106750
5857.031250	-72.541069
5943.164063	-77.149292
6029.296875	-80.275993
6115.429688	-75.901520
6201.562500	-74.435707
6287.695313	-76.377319
6373.828125	-79.111740
6459.960938	-85.668037
6546.093750	-84.772423
6632.226563	-84.402618
6718.359375	-89.002434
6804.492188	-90.095039
6890.625000	-82.955734
6976.757813	-78.757614
7062.890625	-77.261353
7149.023438	-78.017418
7235.156250	-81.328140
7321.289063	-89.519562
7407.421875	-82.046219
7493.554688	-79.972382
7579.687500	-81.694298
7665.820313	-86.415916
7751.953125	-85.228035
7838.085938	-81.907028
7924.218750	-78.195702
8010.351563	-77.657249
8096.484375	-81.733864
8182.617188	-86.014366
8268.750000	-91.251198
8354.882813	-89.688644
8441.015625	-89.105576
8527.148438	-94.722099
8613.281250	-93.151115
8699.414063	-90.189377
8785.546875	-89.363838
8871.679688	-88.943977
8957.812500	-92.884743
9043.945313	-94.308105
9130.078125	-92.810287
9216.210938	-90.149490
9302.343750	-89.818100
9388.476563	-94.885414
9474.609375	-91.513359
9560.742188	-89.363037
9646.875000	-90.684288
9733.007813	-95.557999
9819.140625	-104.375000
9905.273438	-102.679657
9991.406250	-101.807098
10077.539063	-103.849091
10163.671875	-98.716148
10249.804688	-95.003136
10335.937500	-94.669518
10422.070313	-94.022430
10508.203125	-96.021851
10594.335938	-102.963898
10680.468750	-98.211693
10766.601563	-93.587250
10852.734375	-92.971451
10938.867188	-97.184982
11025.000000	-100.941185
11111.132813	-98.875542
11197.265625	-99.883247
11283.398438	-100.532738
11369.531250	-99.535606
11455.664063	-101.716011
11541.796875	-103.420761
11627.929688	-101.540726
11714.062500	-100.950340
11800.195313	-102.607109
11886.328125	-101.595558
11972.460938	-97.470024
12058.593750	-98.105453
12144.726563	-101.321083
12230.859375	-98.388428
12316.992188	-95.754028
12403.125000	-97.357956
12489.257813	-100.860764
12575.390625	-100.709694
12661.523438	-96.255127
12747.656250	-93.995834
12833.789063	-93.195259
12919.921875	-91.991287
13006.054688	-91.761444
13092.187500	-94.264336
13178.320313	-96.823784
13264.453125	-94.684105
13350.585938	-96.281929
13436.718750	-98.650375
13522.851563	-95.993698
13608.984375	-94.586227
13695.117188	-97.428841
13781.250000	-102.061073
13867.382813	-102.943329
13953.515625	-101.947975
14039.648438	-104.658775
14125.781250	-103.063194
14211.914063	-98.077271
14298.046875	-98.672623
14384.179688	-100.270065
14470.312500	-97.094246
14556.445313	-98.070366
14642.578125	-101.743370
14728.710938	-98.040695
14814.843750	-100.715096
14900.976563	-98.919220
14987.109375	-97.448921
15073.242188	-95.902649
15159.375000	-95.661934
15245.507813	-100.166779
15331.640625	-96.699623
15417.773438	-96.498695
15503.906250	-97.269821
15590.039063	-97.187271
15676.171875	-98.777092
15762.304688	-101.688110
15848.437500	-100.930641
15934.570313	-96.594383
16020.703125	-96.338966
16106.835938	-98.619873
16192.968750	-102.871277
16279.101563	-108.333420
16365.234375	-107.736588
16451.367188	-104.858856
16537.500000	-101.282158
16623.632813	-104.105202
16709.765625	-100.687027
16795.898438	-98.876183
16882.031250	-98.317467
16968.164063	-99.562744
17054.296875	-105.055153
17140.429688	-108.971146
17226.562500	-106.084282
17312.695313	-107.534454
17398.828125	-111.945396
17484.960938	-108.390923
17571.093750	-106.737434
17657.226563	-107.072144
17743.359375	-102.407150
17829.492188	-101.297073
17915.625000	-104.718079
18001.757813	-103.754242
18087.890625	-104.111473
18174.023438	-107.758247
18260.156250	-102.242165
18346.289063	-100.689651
18432.421875	-103.309464
18518.554688	-106.649330
18604.687500	-109.154259
18690.820313	-112.329659
18776.953125	-114.554932
18863.085938	-105.160461
18949.218750	-103.559326
19035.351563	-107.495712
19121.484375	-112.519203
19207.617188	-116.553986
19293.750000	-120.947159
19379.882813	-116.366852
19466.015625	-113.719864
19552.148438	-110.731773
19638.281250	-110.213951
19724.414063	-114.126717
19810.546875	-110.258865
19896.679688	-109.706947
19982.812500	-109.307487
20068.945313	-111.909073
20155.078125	-117.723137
20241.210938	-116.490059
20327.343750	-118.149216
20413.476563	-122.019508
20499.609375	-118.619652
20585.742188	-117.130325
20671.875000	-123.043648
20758.007813	-127.832146
20844.140625	-128.447220
20930.273438	-129.042938
21016.406250	-125.505363
21102.539063	-124.728874
21188.671875	-128.595001
21274.804688	-132.511902
21360.937500	-134.554062
21447.070313	-131.189056
21533.203125	-129.119751
21619.335938	-131.372330
21705.468750	-136.771820
21791.601563	-140.226501
21877.734375	-140.956650
21963.867188	-140.149185
