Frequency (Hz)	Level (dB)
86.132813	-60.707573
172.265625	-60.568935
258.398438	-61.101490
344.531250	-63.912285
430.664063	-59.622932
516.796875	-60.440163
602.929688	-65.484108
689.062500	-67.787323
775.195313	-71.387177
861.328125	-69.661041
947.460938	-62.796101
1033.593750	-65.759102
1119.726563	-78.668732
1205.859375	-72.430946
1291.992188	-66.833611
1378.125000	-63.868382
1464.257813	-62.867889
1550.390625	-62.871498
1636.523438	-60.823864
1722.656250	-61.070007
1808.789063	-65.501511
1894.921875	-66.908791
1981.054688	-63.834991
2067.187500	-60.988480
2153.320313	-62.131165
2239.453125	-64.469696
2325.585938	-61.873535
2411.718750	-57.287983
2497.851563	-60.397190
2583.984375	-70.898796
2670.117188	-68.009941
2756.250000	-68.326057
2842.382813	-67.753517
2928.515625	-71.151451
3014.648438	-74.899979
3100.781250	-71.846619
3186.914063	-67.182365
3273.046875	-62.817158
3359.179688	-64.744408
3445.312500	-72.175430
3531.445313	-68.581589
3617.578125	-66.295967
3703.710938	-71.614685
3789.843750	-74.272896
3875.976563	-63.064110
3962.109375	-54.582478
4048.242188	-50.875866
4134.375000	-51.571808
4220.507813	-53.308788
4306.640625	-55.217262
4392.773438	-58.893188
4478.906250	-64.407104
4565.039063	-73.664734
4651.171875	-83.010704
4737.304688	-79.396507
4823.437500	-82.833595
4909.570313	-74.848770
4995.703125	-66.670929
5081.835938	-61.326698
5167.968750	-61.959450
5254.101563	-64.563690
5340.234375	-64.538200
5426.367188	-67.304375
5512.500000	-66.324501
5598.632813	-64.503365
5684.765625	-62.546555
5770.898438	-59.300468
5857.031250	-49.778275
5943.164063	-46.376530
6029.296875	-50.474827
6115.429688	-59.717140
6201.562500	-65.211937
6287.695313	-74.140411
6373.828125	-73.484108
6459.960938	-73.742638
6546.093750	-75.231529
6632.226563	-80.346664
6718.359375	-82.412033
6804.492188	-87.036102
6890.625000	-78.119133
6976.757813	-76.027328
7062.890625	-77.219940
7149.023438	-81.212944
7235.156250	-78.928741
7321.289063	-75.004211
7407.421875	-75.829147
7493.554688	-76.061554
7579.687500	-73.007454
7665.820313	-75.963379
7751.953125	-71.771049
7838.085938	-71.253235
7924.218750	-79.188263
8010.351563	-84.176781
8096.484375	-79.156357
8182.617188	-79.935905
8268.750000	-82.162430
8354.882813	-79.394341
8441.015625	-78.072517
8527.148438	-78.110909
8613.281250	-76.625710
8699.414063	-76.034424
8785.546875	-76.130608
8871.679688	-78.299545
8957.812500	-83.144974
9043.945313	-79.469627
9130.078125	-77.094498
9216.210938	-74.378586
9302.343750	-72.064476
9388.476563	-73.573250
9474.609375	-76.479721
9560.742188	-74.852257
9646.875000	-75.769684
9733.007813	-76.239365
9819.140625	-76.012016
9905.273438	-77.953423
9991.406250	-81.606232
10077.539063	-83.089745
10163.671875	-81.828362
10249.804688	-82.880615
10335.937500	-89.052490
10422.070313	-75.910194
10508.203125	-69.212776
10594.335938	-66.742119
10680.468750	-67.895432
10766.601563	-72.057335
10852.734375	-76.672821
10938.867188	-83.698051
11025.000000	-82.046967
11111.132813	-78.235161
11197.265625	-77.680267
11283.398438	-77.661270
11369.531250	-82.295700
11455.664063	-92.548149
11541.796875	-88.557198
11627.929688	-87.542641
11714.062500	-87.135544
11800.195313	-83.390076
11886.328125	-79.765587
11972.460938	-75.974091
12058.593750	-73.375565
12144.726563	-73.651344
12230.859375	-78.400414
12316.992188	-86.669739
12403.125000	-89.985283
12489.257813	-89.139503
12575.390625	-90.112549
12661.523438	-93.188744
12747.656250	-97.029060
12833.789063	-99.033905
12919.921875	-100.985451
13006.054688	-99.637711
13092.187500	-93.803192
13178.320313	-89.147720
13264.453125	-86.820442
13350.585938	-86.764397
13436.718750	-90.937210
13522.851563	-94.490250
13608.984375	-93.959274
13695.117188	-92.244225
13781.250000	-86.948906
13867.382813	-85.344208
13953.515625	-86.244568
14039.648438	-86.124298
14125.781250	-85.979973
14211.914063	-87.839287
14298.046875	-90.395134
14384.179688	-95.675705
14470.312500	-92.563889
14556.445313	-90.446587
14642.578125	-91.995567
14728.710938	-96.239006
14814.843750	-94.320023
14900.976563	-98.113281
14987.109375	-92.890678
15073.242188	-88.700035
15159.375000	-88.162979
15245.507813	-87.435661
15331.640625	-85.130447
15417.773438	-84.030426
15503.906250	-82.921295
15590.039063	-83.228035
15676.171875	-85.418236
15762.304688	-86.125435
15848.437500	-84.525398
15934.570313	-82.512535
16020.703125	-82.341591
16106.835938	-84.563667
16192.968750	-87.780159
16279.101563	-90.183380
16365.234375	-92.495537
16451.367188	-96.073524
16537.500000	-99.847183
16623.632813	-102.795479
16709.765625	-106.363846
16795.898438	-105.099648
16882.031250	-103.717918
16968.164063	-100.623985
17054.296875	-100.768669
17140.429688	-103.778328
17226.562500	-104.545387
17312.695313	-102.136665
17398.828125	-101.691185
17484.960938	-102.956093
17571.093750	-103.265808
17657.226563	-103.503540
17743.359375	-105.060127
17829.492188	-105.157242
17915.625000	-105.161537
18001.757813	-102.901657
18087.890625	-102.952888
18174.023438	-106.924194
18260.156250	-111.139610
18346.289063	-112.157219
18432.421875	-113.781036
18518.554688	-110.301926
18604.687500	-107.404617
18690.820313	-106.119057
18776.953125	-106.032341
18863.085938	-107.123795
18949.218750	-107.872955
19035.351563	-109.803596
19121.484375	-113.248802
19207.617188	-116.530792
19293.750000	-119.308090
19379.882813	-121.510208
19466.015625	-119.587906
19552.148438	-117.242348
19638.281250	-116.599052
19724.414063	-118.242714
19810.546875	-120.027039
19896.679688	-123.727516
19982.812500	-129.951187
20068.945313	-128.490005
20155.078125	-128.837219
20241.210938	-130.040894
20327.343750	-133.263382
20413.476563	-135.050034
20499.609375	-136.802002
20585.742188	-136.925735
20671.875000	-137.118942
20758.007813	-139.789841
20844.140625	-140.155167
20930.273438	-140.173203
21016.406250	-140.283157
21102.539063	-140.343491
21188.671875	-143.272659
21274.804688	-146.737183
21360.937500	-146.422409
21447.070313	-145.866135
21533.203125	-148.243912
21619.335938	-148.784378
21705.468750	-151.680527
21791.601563	-155.427979
21877.734375	-156.188446
21963.867188	-154.542282
