Frequency (Hz)	Level (dB)
86.132813	-65.369301
172.265625	-64.580490
258.398438	-66.100571
344.531250	-67.981720
430.664063	-69.679512
516.796875	-70.650337
602.929688	-70.919159
689.062500	-71.665527
775.195313	-73.291641
861.328125	-75.640663
947.460938	-77.951141
1033.593750	-77.272934
1119.726563	-73.101219
1205.859375	-72.728615
1291.992188	-70.862892
1378.125000	-69.340599
1464.257813	-70.998474
1550.390625	-71.939232
1636.523438	-72.715034
1722.656250	-72.926201
1808.789063	-71.403442
1894.921875	-69.825127
1981.054688	-70.965233
2067.187500	-67.128883
2153.320313	-62.443130
2239.453125	-66.634056
2325.585938	-74.960541
2411.718750	-74.701180
2497.851563	-71.498756
2583.984375	-69.294067
2670.117188	-68.085526
2756.250000	-69.563774
2842.382813	-71.714745
2928.515625	-75.487610
3014.648438	-80.963364
3100.781250	-82.794449
3186.914063	-80.901154
3273.046875	-76.999779
3359.179688	-73.164726
3445.312500	-69.852821
3531.445313	-70.360947
3617.578125	-70.289597
3703.710938	-70.618805
3789.843750	-69.399490
3875.976563	-65.193085
3962.109375	-64.283463
4048.242188	-63.562775
4134.375000	-58.216209
4220.507813	-58.518246
4306.640625	-61.836021
4392.773438	-62.898014
4478.906250	-65.326080
4565.039063	-65.792892
4651.171875	-65.244644
4737.304688	-63.769295
4823.437500	-61.804996
4909.570313	-59.360962
4995.703125	-55.060482
5081.835938	-54.390282
5167.968750	-58.510433
5254.101563	-60.115639
5340.234375	-60.959175
5426.367188	-61.588543
5512.500000	-64.830559
5598.632813	-67.917488
5684.765625	-67.202950
5770.898438	-65.358566
5857.031250	-65.025925
5943.164063	-64.143723
6029.296875	-67.736389
6115.429688	-70.475380
6201.562500	-67.419617
6287.695313	-60.931820
6373.828125	-61.528179
6459.960938	-70.130989
6546.093750	-73.190948
6632.226563	-74.539932
6718.359375	-74.751541
6804.492188	-74.732735
6890.625000	-75.948151
6976.757813	-76.176903
7062.890625	-78.037125
7149.023438	-80.473160
7235.156250	-80.843552
7321.289063	-74.930290
7407.421875	-70.968880
7493.554688	-72.115555
7579.687500	-74.846214
7665.820313	-74.279480
7751.953125	-73.687401
7838.085938	-78.218361
7924.218750	-86.076591
8010.351563	-87.849350
8096.484375	-87.341034
8182.617188	-85.650230
8268.750000	-87.864853
8354.882813	-89.914528
8441.015625	-89.617279
8527.148438	-87.218269
8613.281250	-83.988243
8699.414063	-84.250946
8785.546875	-84.994514
8871.679688	-86.315804
8957.812500	-84.832497
9043.945313	-82.477333
9130.078125	-79.481476
9216.210938	-78.645004
9302.343750	-78.046410
9388.476563	-76.384239
9474.609375	-77.836456
9560.742188	-81.629448
9646.875000	-82.622391
9733.007813	-80.871185
9819.140625	-82.838120
9905.273438	-84.157295
9991.406250	-90.473030
10077.539063	-92.061684
10163.671875	-86.630463
10249.804688	-82.710487
10335.937500	-77.704659
10422.070313	-74.081902
10508.203125	-70.954147
10594.335938	-67.904831
10680.468750	-65.238159
10766.601563	-66.283920
10852.734375	-70.397446
10938.867188	-73.999130
11025.000000	-76.612648
11111.132813	-78.574799
11197.265625	-79.225067
11283.398438	-78.191788
11369.531250	-78.857132
11455.664063	-80.774391
11541.796875	-81.883629
11627.929688	-84.172325
11714.062500	-88.230728
11800.195313	-85.422562
11886.328125	-79.227448
11972.460938	-77.024963
12058.593750	-79.254112
12144.726563	-82.850304
12230.859375	-86.528877
12316.992188	-93.317238
12403.125000	-98.932663
12489.257813	-92.532326
12575.390625	-90.064400
12661.523438	-90.395073
12747.656250	-91.590424
12833.789063	-92.270874
12919.921875	-94.447502
13006.054688	-97.656868
13092.187500	-96.983772
13178.320313	-94.436241
13264.453125	-93.008751
13350.585938	-91.301727
13436.718750	-90.895142
13522.851563	-91.848465
13608.984375	-93.947487
13695.117188	-98.230583
13781.250000	-105.594070
13867.382813	-108.043213
13953.515625	-106.392899
14039.648438	-102.482735
14125.781250	-97.980347
14211.914063	-96.286232
14298.046875	-93.668175
14384.179688	-93.980629
14470.312500	-95.092285
14556.445313	-95.411057
14642.578125	-97.363937
14728.710938	-99.625595
14814.843750	-99.712967
14900.976563	-98.853203
14987.109375	-98.917038
15073.242188	-100.637268
15159.375000	-99.394844
15245.507813	-97.498169
15331.640625	-96.229408
15417.773438	-94.245895
15503.906250	-94.856735
15590.039063	-95.263580
15676.171875	-93.829086
15762.304688	-92.897293
15848.437500	-95.060387
15934.570313	-99.351456
16020.703125	-104.565048
16106.835938	-107.493362
16192.968750	-107.710197
16279.101563	-107.624863
16365.234375	-109.758293
16451.367188	-113.365005
16537.500000	-114.279617
16623.632813	-114.526810
16709.765625	-115.127647
16795.898438	-116.130836
16882.031250	-116.553726
16968.164063	-115.786919
17054.296875	-112.888260
17140.429688	-110.737083
17226.562500	-110.396149
17312.695313	-111.664955
17398.828125	-111.277672
17484.960938	-110.825096
17571.093750	-110.731064
17657.226563	-111.389816
17743.359375	-110.948128
17829.492188	-112.271034
17915.625000	-113.878067
18001.757813	-113.921272
18087.890625	-116.724129
18174.023438	-120.422844
18260.156250	-122.905632
18346.289063	-124.253387
18432.421875	-121.771645
18518.554688	-120.504608
18604.687500	-122.155418
18690.820313	-120.792618
18776.953125	-117.239029
18863.085938	-116.485153
18949.218750	-117.146187
19035.351563	-118.094856
19121.484375	-118.185783
19207.617188	-117.840103
19293.750000	-117.419632
19379.882813	-117.039345
19466.015625	-117.600449
19552.148438	-119.117912
19638.281250	-119.906197
19724.414063	-118.010361
19810.546875	-117.884674
19896.679688	-119.963417
19982.812500	-120.612595
20068.945313	-121.702698
20155.078125	-124.516937
20241.210938	-129.131577
20327.343750	-132.887985
20413.476563	-134.652618
20499.609375	-132.978592
20585.742188	-133.613861
20671.875000	-133.874496
20758.007813	-131.481827
20844.140625	-130.004456
20930.273438	-131.615250
21016.406250	-135.659714
21102.539063	-138.825775
21188.671875	-137.684296
21274.804688	-136.444382
21360.937500	-138.771957
21447.070313	-145.571976
21533.203125	-149.304749
21619.335938	-151.719009
21705.468750	-148.983963
21791.601563	-147.019379
21877.734375	-146.662231
21963.867188	-150.044418
