Frequency (Hz)	Level (dB)
86.132813	-53.229851
172.265625	-55.111580
258.398438	-60.205086
344.531250	-63.075279
430.664063	-64.247849
516.796875	-62.798553
602.929688	-62.424171
689.062500	-63.761742
775.195313	-66.220200
861.328125	-68.645210
947.460938	-70.434372
1033.593750	-72.995918
1119.726563	-67.523087
1205.859375	-63.003471
1291.992188	-60.282589
1378.125000	-59.836079
1464.257813	-61.660599
1550.390625	-65.770927
1636.523438	-67.739494
1722.656250	-65.626808
1808.789063	-65.877869
1894.921875	-68.607384
1981.054688	-64.740334
2067.187500	-60.734798
2153.320313	-55.881165
2239.453125	-57.473961
2325.585938	-69.895027
2411.718750	-65.908264
2497.851563	-60.346729
2583.984375	-57.985470
2670.117188	-56.969265
2756.250000	-55.110352
2842.382813	-54.256905
2928.515625	-58.013313
3014.648438	-67.950249
3100.781250	-71.011925
3186.914063	-66.740089
3273.046875	-62.644218
3359.179688	-59.887619
3445.312500	-60.423519
3531.445313	-64.104164
3617.578125	-66.881371
3703.710938	-67.558090
3789.843750	-64.857498
3875.976563	-61.096931
3962.109375	-57.893692
4048.242188	-57.058422
4134.375000	-49.444572
4220.507813	-47.201710
4306.640625	-51.907257
4392.773438	-57.303001
4478.906250	-60.213024
4565.039063	-64.885651
4651.171875	-67.933678
4737.304688	-63.206924
4823.437500	-60.714993
4909.570313	-54.048271
4995.703125	-44.589733
5081.835938	-40.588615
5167.968750	-42.806583
5254.101563	-49.346573
5340.234375	-51.902794
5426.367188	-54.226940
5512.500000	-56.416618
5598.632813	-58.169083
5684.765625	-60.355270
5770.898438	-58.896450
5857.031250	-57.535904
5943.164063	-62.028255
6029.296875	-61.600883
6115.429688	-58.083878
6201.562500	-53.364380
6287.695313	-49.451202
6373.828125	-51.386738
6459.960938	-59.369953
6546.093750	-62.310238
6632.226563	-66.325233
6718.359375	-70.573822
6804.492188	-74.744850
6890.625000	-75.521820
6976.757813	-68.989494
7062.890625	-66.444595
7149.023438	-63.952053
7235.156250	-61.540710
7321.289063	-58.713005
7407.421875	-57.392441
7493.554688	-59.945061
7579.687500	-65.571243
7665.820313	-67.393135
7751.953125	-69.634850
7838.085938	-75.921928
7924.218750	-77.849640
8010.351563	-74.906303
8096.484375	-73.541931
8182.617188	-69.777458
8268.750000	-69.870308
8354.882813	-73.675812
8441.015625	-72.507980
8527.148438	-71.458893
8613.281250	-70.205154
8699.414063	-68.606369
8785.546875	-70.043434
8871.679688	-67.813225
8957.812500	-65.229866
9043.945313	-68.100502
9130.078125	-69.004684
9216.210938	-64.273918
9302.343750	-61.804596
9388.476563	-62.283207
9474.609375	-65.414055
9560.742188	-67.859146
9646.875000	-71.929153
9733.007813	-75.560463
9819.140625	-76.909485
9905.273438	-79.510132
9991.406250	-79.015289
10077.539063	-77.548485
10163.671875	-72.944023
10249.804688	-69.876366
10335.937500	-69.422974
10422.070313	-70.932434
10508.203125	-66.542633
10594.335938	-61.012653
10680.468750	-56.828915
10766.601563	-56.740269
10852.734375	-60.362854
10938.867188	-63.638916
11025.000000	-68.166878
11111.132813	-75.827072
11197.265625	-72.424118
11283.398438	-70.288643
11369.531250	-69.717186
11455.664063	-69.097763
11541.796875	-69.441322
11627.929688	-70.745811
11714.062500	-72.279114
11800.195313	-78.268860
11886.328125	-69.530060
11972.460938	-64.940041
12058.593750	-64.326607
12144.726563	-65.528160
12230.859375	-68.862015
12316.992188	-72.940536
12403.125000	-76.447800
12489.257813	-78.536964
12575.390625	-79.216599
12661.523438	-77.489578
12747.656250	-76.595322
12833.789063	-78.915390
12919.921875	-86.499046
13006.054688	-93.792122
13092.187500	-86.280807
13178.320313	-82.832085
13264.453125	-81.561623
13350.585938	-81.358215
13436.718750	-80.276093
13522.851563	-81.318672
13608.984375	-86.476685
13695.117188	-91.873840
13781.250000	-87.405769
13867.382813	-88.336029
13953.515625	-88.291161
14039.648438	-88.871384
14125.781250	-97.305099
14211.914063	-86.324699
14298.046875	-81.446671
14384.179688	-81.534027
14470.312500	-80.730423
14556.445313	-79.808762
14642.578125	-80.876091
14728.710938	-82.332764
14814.843750	-82.313004
14900.976563	-82.473663
14987.109375	-81.778580
15073.242188	-80.685303
15159.375000	-80.063560
15245.507813	-78.912285
15331.640625	-74.841484
15417.773438	-72.602745
15503.906250	-72.781242
15590.039063	-70.990097
15676.171875	-66.676392
15762.304688	-63.903740
15848.437500	-65.087914
15934.570313	-69.479347
16020.703125	-73.192406
16106.835938	-74.258614
16192.968750	-75.218819
16279.101563	-74.862717
16365.234375	-71.844376
16451.367188	-70.557007
16537.500000	-71.205330
16623.632813	-73.792953
16709.765625	-76.449799
16795.898438	-76.501450
16882.031250	-76.037003
16968.164063	-76.351089
17054.296875	-75.751755
17140.429688	-75.133148
17226.562500	-75.082230
17312.695313	-74.803131
17398.828125	-75.457245
17484.960938	-76.733498
17571.093750	-74.896980
17657.226563	-76.432213
17743.359375	-77.174171
17829.492188	-74.918381
17915.625000	-72.548973
18001.757813	-71.978821
18087.890625	-73.894005
18174.023438	-78.317078
18260.156250	-80.730553
18346.289063	-78.145012
18432.421875	-76.216240
18518.554688	-76.582092
18604.687500	-79.568848
18690.820313	-85.423706
18776.953125	-87.814430
18863.085938	-84.309982
18949.218750	-84.332321
19035.351563	-85.212029
19121.484375	-85.770355
19207.617188	-89.639137
19293.750000	-97.430161
19379.882813	-97.303772
19466.015625	-92.639885
19552.148438	-91.045128
19638.281250	-88.672852
19724.414063	-89.283455
19810.546875	-93.523277
19896.679688	-96.474197
19982.812500	-95.357567
20068.945313	-97.225662
20155.078125	-100.651627
20241.210938	-97.292580
20327.343750	-95.521988
20413.476563	-96.783417
20499.609375	-97.654114
20585.742188	-97.818100
20671.875000	-99.544678
20758.007813	-98.576935
20844.140625	-99.531487
20930.273438	-101.717911
21016.406250	-101.213440
21102.539063	-103.062210
21188.671875	-105.106209
21274.804688	-105.839600
21360.937500	-108.192101
21447.070313	-111.099144
21533.203125	-114.005295
21619.335938	-117.974258
21705.468750	-116.759819
21791.601563	-117.803627
21877.734375	-122.000824
21963.867188	-125.913132
