Frequency (Hz)	Level (dB)
86.132813	-65.649368
172.265625	-64.730591
258.398438	-65.993774
344.531250	-67.967499
430.664063	-69.758308
516.796875	-70.621399
602.929688	-70.874275
689.062500	-71.614037
775.195313	-73.222061
861.328125	-75.460686
947.460938	-77.860924
1033.593750	-79.078064
1119.726563	-74.582504
1205.859375	-72.751457
1291.992188	-70.176674
1378.125000	-69.159660
1464.257813	-70.493629
1550.390625	-72.363487
1636.523438	-72.031967
1722.656250	-71.337677
1808.789063	-69.601746
1894.921875	-69.873947
1981.054688	-71.719093
2067.187500	-65.804985
2153.320313	-62.156540
2239.453125	-66.579681
2325.585938	-75.322227
2411.718750	-75.696548
2497.851563	-72.522766
2583.984375	-70.387581
2670.117188	-69.134010
2756.250000	-70.605209
2842.382813	-72.557076
2928.515625	-74.904785
3014.648438	-78.073746
3100.781250	-83.955399
3186.914063	-83.235512
3273.046875	-77.138916
3359.179688	-72.406685
3445.312500	-69.210915
3531.445313	-69.243980
3617.578125	-69.553780
3703.710938	-71.033432
3789.843750	-69.949135
3875.976563	-66.109497
3962.109375	-66.569466
4048.242188	-64.738472
4134.375000	-59.368000
4220.507813	-59.637386
4306.640625	-61.767769
4392.773438	-63.461903
4478.906250	-65.641739
4565.039063	-65.830933
4651.171875	-64.715752
4737.304688	-63.685310
4823.437500	-62.318336
4909.570313	-59.397400
4995.703125	-55.017315
5081.835938	-53.669479
5167.968750	-57.878532
5254.101563	-60.225193
5340.234375	-60.844494
5426.367188	-61.961353
5512.500000	-64.618553
5598.632813	-67.089783
5684.765625	-67.401093
5770.898438	-66.291946
5857.031250	-66.215889
5943.164063	-68.851509
6029.296875	-73.123375
6115.429688	-75.444534
6201.562500	-68.438164
6287.695313	-62.314152
6373.828125	-63.459373
6459.960938	-71.512321
6546.093750	-74.205154
6632.226563	-75.031044
6718.359375	-73.592987
6804.492188	-74.151985
6890.625000	-74.992439
6976.757813	-76.498177
7062.890625	-78.750198
7149.023438	-80.646950
7235.156250	-81.881699
7321.289063	-75.559746
7407.421875	-70.557617
7493.554688	-70.484779
7579.687500	-73.376022
7665.820313	-74.989326
7751.953125	-73.206047
7838.085938	-75.479935
7924.218750	-81.358887
8010.351563	-84.855385
8096.484375	-86.611526
8182.617188	-86.830200
8268.750000	-88.483978
8354.882813	-91.162041
8441.015625	-90.655800
8527.148438	-87.617699
8613.281250	-86.304855
8699.414063	-84.677002
8785.546875	-86.069901
8871.679688	-87.261200
8957.812500	-84.259247
9043.945313	-82.328934
9130.078125	-79.902969
9216.210938	-78.900810
9302.343750	-78.742706
9388.476563	-78.237877
9474.609375	-80.108414
9560.742188	-82.894249
9646.875000	-83.138313
9733.007813	-81.840012
9819.140625	-81.356522
9905.273438	-82.745331
9991.406250	-86.148888
10077.539063	-86.885826
10163.671875	-85.572281
10249.804688	-83.819084
10335.937500	-79.306625
10422.070313	-75.180603
10508.203125	-71.372208
10594.335938	-68.014000
10680.468750	-65.701141
10766.601563	-66.660530
10852.734375	-70.462395
10938.867188	-74.352890
11025.000000	-77.536453
11111.132813	-79.550369
11197.265625	-79.300613
11283.398438	-77.780960
11369.531250	-78.630554
11455.664063	-80.865181
11541.796875	-82.588608
11627.929688	-85.091400
11714.062500	-87.580421
11800.195313	-87.610710
11886.328125	-80.156242
11972.460938	-77.682518
12058.593750	-79.504723
12144.726563	-84.637360
12230.859375	-91.094765
12316.992188	-93.146332
12403.125000	-89.828453
12489.257813	-88.106552
12575.390625	-88.516785
12661.523438	-90.458458
12747.656250	-92.093361
12833.789063	-95.404266
12919.921875	-98.810341
13006.054688	-99.867165
13092.187500	-97.991959
13178.320313	-94.855446
13264.453125	-92.872475
13350.585938	-90.799248
13436.718750	-89.636948
13522.851563	-90.974617
13608.984375	-94.569542
13695.117188	-99.454514
13781.250000	-104.492889
13867.382813	-106.014519
13953.515625	-106.028351
14039.648438	-100.198067
14125.781250	-94.679062
14211.914063	-94.218834
14298.046875	-94.527229
14384.179688	-93.656685
14470.312500	-94.707542
14556.445313	-94.561256
14642.578125	-95.301918
14728.710938	-96.272430
14814.843750	-97.329514
14900.976563	-96.895897
14987.109375	-97.333282
15073.242188	-100.805542
15159.375000	-107.048271
15245.507813	-99.589211
15331.640625	-97.256187
15417.773438	-94.920845
15503.906250	-94.026314
15590.039063	-93.247681
15676.171875	-92.566864
15762.304688	-92.059875
15848.437500	-93.981262
15934.570313	-98.269600
16020.703125	-103.297897
16106.835938	-104.600456
16192.968750	-104.685524
16279.101563	-105.187798
16365.234375	-107.261147
16451.367188	-112.174477
16537.500000	-113.893082
16623.632813	-112.698578
16709.765625	-114.404549
16795.898438	-124.600128
16882.031250	-117.619164
16968.164063	-110.656868
17054.296875	-108.984436
17140.429688	-108.508881
17226.562500	-108.571213
17312.695313	-109.683586
17398.828125	-110.390129
17484.960938	-111.445328
17571.093750	-113.100677
17657.226563	-116.101173
17743.359375	-120.870216
17829.492188	-118.270210
17915.625000	-114.518196
18001.757813	-112.868805
18087.890625	-113.164810
18174.023438	-113.106071
18260.156250	-113.050400
18346.289063	-112.600510
18432.421875	-112.990753
18518.554688	-115.717171
18604.687500	-118.581261
18690.820313	-117.981674
18776.953125	-116.604080
18863.085938	-116.165337
18949.218750	-116.271919
19035.351563	-116.895851
19121.484375	-116.982635
19207.617188	-116.583420
19293.750000	-115.318878
19379.882813	-115.419952
19466.015625	-116.800369
19552.148438	-119.848175
19638.281250	-122.375763
19724.414063	-123.081581
19810.546875	-122.853546
19896.679688	-122.048683
19982.812500	-121.086243
20068.945313	-122.693596
20155.078125	-123.636330
20241.210938	-123.560104
20327.343750	-124.767143
20413.476563	-126.741951
20499.609375	-126.583427
20585.742188	-126.133842
20671.875000	-126.014435
20758.007813	-126.676262
20844.140625	-127.594177
20930.273438	-128.096725
21016.406250	-129.491714
21102.539063	-132.351776
21188.671875	-133.990967
21274.804688	-135.142151
21360.937500	-136.277679
21447.070313	-138.653015
21533.203125	-142.105179
21619.335938	-145.251831
21705.468750	-145.964813
21791.601563	-145.593307
21877.734375	-146.263153
21963.867188	-144.604111
