Frequency (Hz)	Level (dB)
86.132813	-50.338329
172.265625	-53.718807
258.398438	-60.073277
344.531250	-62.142757
430.664063	-58.059681
516.796875	-59.112663
602.929688	-60.412918
689.062500	-61.978756
775.195313	-63.742928
861.328125	-64.245193
947.460938	-62.313015
1033.593750	-58.943707
1119.726563	-56.786884
1205.859375	-56.036793
1291.992188	-55.868893
1378.125000	-57.160275
1464.257813	-60.181473
1550.390625	-62.014217
1636.523438	-63.363964
1722.656250	-62.931797
1808.789063	-61.807808
1894.921875	-61.444920
1981.054688	-57.598240
2067.187500	-55.161972
2153.320313	-56.075745
2239.453125	-58.260654
2325.585938	-61.700733
2411.718750	-65.914856
2497.851563	-67.808167
2583.984375	-63.415237
2670.117188	-62.994446
2756.250000	-63.244354
2842.382813	-60.506329
2928.515625	-60.135242
3014.648438	-62.700600
3100.781250	-69.238022
3186.914063	-72.556351
3273.046875	-68.820503
3359.179688	-60.717152
3445.312500	-56.040222
3531.445313	-57.280491
3617.578125	-61.915100
3703.710938	-63.106918
3789.843750	-57.883694
3875.976563	-56.706749
3962.109375	-57.270664
4048.242188	-62.540985
4134.375000	-65.059181
4220.507813	-65.050934
4306.640625	-62.277103
4392.773438	-64.292046
4478.906250	-63.427982
4565.039063	-61.147804
4651.171875	-61.323437
4737.304688	-60.138664
4823.437500	-57.952923
4909.570313	-53.742702
4995.703125	-43.392891
5081.835938	-38.542053
5167.968750	-40.288651
5254.101563	-46.563011
5340.234375	-52.737431
5426.367188	-56.859425
5512.500000	-59.320805
5598.632813	-61.721577
5684.765625	-60.034286
5770.898438	-58.200420
5857.031250	-58.160892
5943.164063	-56.067638
6029.296875	-55.902416
6115.429688	-59.034733
6201.562500	-59.383556
6287.695313	-58.573376
6373.828125	-62.073456
6459.960938	-62.488949
6546.093750	-64.355736
6632.226563	-67.943802
6718.359375	-67.332497
6804.492188	-70.895905
6890.625000	-75.311882
6976.757813	-71.284622
7062.890625	-71.054588
7149.023438	-76.204765
7235.156250	-85.237747
7321.289063	-77.804108
7407.421875	-73.409164
7493.554688	-72.868942
7579.687500	-76.763214
7665.820313	-76.485001
7751.953125	-71.909195
7838.085938	-68.968224
7924.218750	-71.922165
8010.351563	-78.487251
8096.484375	-73.773102
8182.617188	-68.991432
8268.750000	-68.737762
8354.882813	-73.235619
8441.015625	-85.464714
8527.148438	-81.195953
8613.281250	-78.772240
8699.414063	-79.555557
8785.546875	-84.576866
8871.679688	-83.016922
8957.812500	-77.919693
9043.945313	-73.346596
9130.078125	-73.596977
9216.210938	-70.634834
9302.343750	-65.227356
9388.476563	-66.517693
9474.609375	-74.407204
9560.742188	-75.161980
9646.875000	-76.023056
9733.007813	-81.789375
9819.140625	-78.174110
9905.273438	-79.996216
9991.406250	-79.701622
10077.539063	-76.979156
10163.671875	-76.114120
10249.804688	-74.965538
10335.937500	-69.969673
10422.070313	-66.197418
10508.203125	-65.146156
10594.335938	-62.527863
10680.468750	-59.410461
10766.601563	-60.529903
10852.734375	-66.032951
10938.867188	-71.531281
11025.000000	-75.348846
11111.132813	-78.741875
11197.265625	-79.403786
11283.398438	-83.828918
11369.531250	-80.709541
11455.664063	-78.393074
11541.796875	-86.565422
11627.929688	-83.953621
11714.062500	-80.941414
11800.195313	-80.320847
11886.328125	-79.064415
11972.460938	-72.181572
12058.593750	-71.716690
12144.726563	-75.317169
12230.859375	-80.690483
12316.992188	-84.060059
12403.125000	-87.883057
12489.257813	-89.237221
12575.390625	-87.866859
12661.523438	-86.701126
12747.656250	-83.301674
12833.789063	-79.011108
12919.921875	-77.753220
13006.054688	-79.764366
13092.187500	-84.994186
13178.320313	-90.741516
13264.453125	-82.697754
13350.585938	-78.831055
13436.718750	-78.230629
13522.851563	-81.161880
13608.984375	-89.346329
13695.117188	-94.659828
13781.250000	-99.819397
13867.382813	-95.698006
13953.515625	-92.921593
14039.648438	-87.103424
14125.781250	-84.409271
14211.914063	-87.891502
14298.046875	-90.464806
14384.179688	-89.618187
14470.312500	-91.232857
14556.445313	-88.427620
14642.578125	-84.426147
14728.710938	-81.459747
14814.843750	-82.923340
14900.976563	-82.073204
14987.109375	-79.371017
15073.242188	-80.082680
15159.375000	-85.339729
15245.507813	-91.078682
15331.640625	-84.152489
15417.773438	-77.032738
15503.906250	-73.914009
15590.039063	-71.661720
15676.171875	-69.099037
15762.304688	-68.449669
15848.437500	-71.531578
15934.570313	-77.666962
16020.703125	-81.459389
16106.835938	-79.330742
16192.968750	-79.187515
16279.101563	-81.210388
16365.234375	-84.254822
16451.367188	-88.964310
16537.500000	-93.336479
16623.632813	-93.419701
16709.765625	-91.415688
16795.898438	-86.182991
16882.031250	-83.860847
16968.164063	-82.867050
17054.296875	-80.944580
17140.429688	-79.621109
17226.562500	-80.183922
17312.695313	-82.683594
17398.828125	-84.731560
17484.960938	-81.610939
17571.093750	-79.360825
17657.226563	-79.247192
17743.359375	-79.353683
17829.492188	-80.233574
17915.625000	-80.778702
18001.757813	-80.326950
18087.890625	-79.927704
18174.023438	-80.603180
18260.156250	-83.324066
18346.289063	-86.892761
18432.421875	-89.680008
18518.554688	-90.879944
18604.687500	-89.050499
18690.820313	-92.431458
18776.953125	-97.315910
18863.085938	-94.395401
18949.218750	-91.659142
19035.351563	-90.337509
19121.484375	-89.043503
19207.617188	-87.774353
19293.750000	-85.718231
19379.882813	-85.002136
19466.015625	-88.788795
19552.148438	-93.154572
19638.281250	-92.710442
19724.414063	-93.722893
19810.546875	-96.808762
19896.679688	-98.094917
19982.812500	-95.055748
20068.945313	-93.146759
20155.078125	-91.750984
20241.210938	-91.018143
20327.343750	-91.313568
20413.476563	-90.253662
20499.609375	-90.766006
20585.742188	-92.484276
20671.875000	-93.939247
20758.007813	-95.353500
20844.140625	-97.221748
20930.273438	-99.744530
21016.406250	-105.789360
21102.539063	-108.326218
21188.671875	-110.607513
21274.804688	-115.710823
21360.937500	-116.707870
21447.070313	-120.980415
21533.203125	-118.012413
21619.335938	-121.298836
21705.468750	-123.926559
21791.601563	-124.511192
21877.734375	-125.889786
21963.867188	-127.858818
