Frequency (Hz)	Level (dB)
86.132813	-56.783230
172.265625	-58.869862
258.398438	-61.189976
344.531250	-63.361118
430.664063	-64.166313
516.796875	-63.449841
602.929688	-62.849087
689.062500	-63.721382
775.195313	-65.574059
861.328125	-67.757721
947.460938	-70.180344
1033.593750	-68.783417
1119.726563	-68.097610
1205.859375	-63.815750
1291.992188	-61.093925
1378.125000	-60.051006
1464.257813	-61.560509
1550.390625	-64.096611
1636.523438	-66.986008
1722.656250	-67.360558
1808.789063	-64.833107
1894.921875	-66.997368
1981.054688	-66.263008
2067.187500	-59.423538
2153.320313	-54.105087
2239.453125	-56.301098
2325.585938	-62.590923
2411.718750	-65.149315
2497.851563	-67.204468
2583.984375	-67.480064
2670.117188	-65.630455
2756.250000	-61.386536
2842.382813	-55.010834
2928.515625	-55.632118
3014.648438	-60.849220
3100.781250	-62.475281
3186.914063	-63.205330
3273.046875	-63.322380
3359.179688	-64.403702
3445.312500	-65.478287
3531.445313	-65.572060
3617.578125	-64.831917
3703.710938	-64.950340
3789.843750	-66.349068
3875.976563	-60.221001
3962.109375	-56.466019
4048.242188	-58.274990
4134.375000	-54.563335
4220.507813	-51.527203
4306.640625	-54.793980
4392.773438	-57.938614
4478.906250	-59.939960
4565.039063	-60.359360
4651.171875	-60.718822
4737.304688	-60.850834
4823.437500	-60.765644
4909.570313	-59.644028
4995.703125	-57.588905
5081.835938	-54.976906
5167.968750	-56.743008
5254.101563	-60.501301
5340.234375	-62.527798
5426.367188	-65.101501
5512.500000	-67.001747
5598.632813	-67.586197
5684.765625	-67.532516
5770.898438	-69.297356
5857.031250	-69.818192
5943.164063	-65.208855
6029.296875	-62.242420
6115.429688	-59.558922
6201.562500	-57.379486
6287.695313	-57.123562
6373.828125	-57.716404
6459.960938	-61.069950
6546.093750	-65.407364
6632.226563	-74.212563
6718.359375	-67.556633
6804.492188	-65.194878
6890.625000	-64.430252
6976.757813	-65.186165
7062.890625	-66.366409
7149.023438	-65.842911
7235.156250	-61.926434
7321.289063	-58.085556
7407.421875	-56.873890
7493.554688	-59.322433
7579.687500	-62.405746
7665.820313	-62.800396
7751.953125	-63.716595
7838.085938	-64.834389
7924.218750	-64.979546
8010.351563	-64.767059
8096.484375	-65.482956
8182.617188	-68.162094
8268.750000	-71.684273
8354.882813	-74.096581
8441.015625	-77.597183
8527.148438	-74.439835
8613.281250	-71.982994
8699.414063	-71.164162
8785.546875	-71.569214
8871.679688	-69.272507
8957.812500	-66.591721
9043.945313	-66.271996
9130.078125	-66.330292
9216.210938	-64.851746
9302.343750	-62.758884
9388.476563	-62.546345
9474.609375	-64.230141
9560.742188	-65.791092
9646.875000	-66.474930
9733.007813	-67.818817
9819.140625	-72.339073
9905.273438	-75.232857
9991.406250	-71.222603
10077.539063	-68.347694
10163.671875	-67.812378
10249.804688	-69.405052
10335.937500	-71.806076
10422.070313	-67.096649
10508.203125	-62.775436
10594.335938	-60.314957
10680.468750	-58.297512
10766.601563	-59.501606
10852.734375	-63.474720
10938.867188	-67.646179
11025.000000	-72.336571
11111.132813	-76.628525
11197.265625	-76.770813
11283.398438	-78.020950
11369.531250	-78.245361
11455.664063	-75.850243
11541.796875	-73.772797
11627.929688	-72.347008
11714.062500	-71.716225
11800.195313	-71.929840
11886.328125	-69.322762
11972.460938	-64.267860
12058.593750	-61.520943
12144.726563	-61.364582
12230.859375	-63.276035
12316.992188	-67.071381
12403.125000	-73.068359
12489.257813	-82.277969
12575.390625	-82.345139
12661.523438	-73.157761
12747.656250	-68.745804
12833.789063	-67.939651
12919.921875	-69.111748
13006.054688	-70.137665
13092.187500	-70.435532
13178.320313	-70.099503
13264.453125	-69.432938
13350.585938	-68.723373
13436.718750	-68.438232
13522.851563	-70.309250
13608.984375	-75.813469
13695.117188	-84.989731
13781.250000	-89.572029
13867.382813	-85.238869
13953.515625	-81.551453
14039.648438	-80.560280
14125.781250	-80.854881
14211.914063	-82.756226
14298.046875	-87.141052
14384.179688	-86.715439
14470.312500	-83.609383
14556.445313	-81.996605
14642.578125	-81.011940
14728.710938	-81.396645
14814.843750	-82.897438
14900.976563	-86.707352
14987.109375	-85.405586
15073.242188	-83.387802
15159.375000	-80.372093
15245.507813	-80.061836
15331.640625	-80.141899
15417.773438	-79.967148
15503.906250	-79.241394
15590.039063	-77.080620
15676.171875	-74.784821
15762.304688	-73.960236
15848.437500	-75.918358
15934.570313	-79.240372
16020.703125	-82.908318
16106.835938	-84.295685
16192.968750	-84.288658
16279.101563	-83.922935
16365.234375	-84.400085
16451.367188	-83.973579
16537.500000	-83.000954
16623.632813	-81.475082
16709.765625	-80.706383
16795.898438	-80.675011
16882.031250	-81.006142
16968.164063	-81.682091
17054.296875	-82.710106
17140.429688	-83.785400
17226.562500	-85.602036
17312.695313	-87.950668
17398.828125	-89.871605
17484.960938	-90.455360
17571.093750	-89.527107
17657.226563	-91.823502
17743.359375	-87.688728
17829.492188	-84.988228
17915.625000	-86.352615
18001.757813	-91.648758
18087.890625	-100.010895
18174.023438	-88.197601
18260.156250	-84.284340
18346.289063	-83.726982
18432.421875	-83.019310
18518.554688	-82.344185
18604.687500	-83.539246
18690.820313	-86.575050
18776.953125	-91.469467
18863.085938	-92.010963
18949.218750	-89.480316
19035.351563	-87.580009
19121.484375	-86.419640
19207.617188	-86.307808
19293.750000	-86.875458
19379.882813	-88.974670
19466.015625	-92.041183
19552.148438	-90.126282
19638.281250	-87.003334
19724.414063	-86.293350
19810.546875	-87.371094
19896.679688	-88.550392
19982.812500	-88.912361
20068.945313	-89.570686
20155.078125	-90.817421
20241.210938	-92.516266
20327.343750	-94.277733
20413.476563	-95.613930
20499.609375	-98.093552
20585.742188	-102.340714
20671.875000	-105.881004
20758.007813	-105.575111
20844.140625	-103.003983
20930.273438	-103.744415
21016.406250	-108.880409
21102.539063	-115.686440
21188.671875	-114.871353
21274.804688	-114.601700
21360.937500	-115.683472
21447.070313	-117.192635
21533.203125	-118.607056
21619.335938	-118.634529
21705.468750	-118.713211
21791.601563	-121.477936
21877.734375	-129.309647
21963.867188	-135.767868
