Frequency (Hz)	Level (dB)
86.132813	-59.277325
172.265625	-57.755898
258.398438	-59.743252
344.531250	-62.803638
430.664063	-65.588348
516.796875	-66.762024
602.929688	-66.563065
689.062500	-67.994385
775.195313	-68.687057
861.328125	-67.810089
947.460938	-67.935188
1033.593750	-69.381836
1119.726563	-69.132454
1205.859375	-68.465706
1291.992188	-65.340363
1378.125000	-67.090324
1464.257813	-62.513016
1550.390625	-63.408932
1636.523438	-69.669472
1722.656250	-78.211571
1808.789063	-68.869881
1894.921875	-68.772545
1981.054688	-75.457092
2067.187500	-71.601181
2153.320313	-74.079231
2239.453125	-75.132248
2325.585938	-72.971085
2411.718750	-68.637123
2497.851563	-68.058922
2583.984375	-69.048508
2670.117188	-70.357056
2756.250000	-72.813789
2842.382813	-76.528572
2928.515625	-64.343491
3014.648438	-58.787384
3100.781250	-61.178001
3186.914063	-69.596123
3273.046875	-79.911949
3359.179688	-76.813393
3445.312500	-75.523224
3531.445313	-80.164948
3617.578125	-78.710472
3703.710938	-79.962540
3789.843750	-75.306824
3875.976563	-71.329163
3962.109375	-70.628204
4048.242188	-73.218193
4134.375000	-78.408669
4220.507813	-77.787811
4306.640625	-72.259209
4392.773438	-74.400154
4478.906250	-85.194466
4565.039063	-74.853561
4651.171875	-70.795486
4737.304688	-71.486664
4823.437500	-65.351448
4909.570313	-62.543125
4995.703125	-65.830132
5081.835938	-75.789063
5167.968750	-75.807655
5254.101563	-74.808647
5340.234375	-70.148315
5426.367188	-73.680214
5512.500000	-71.977654
5598.632813	-72.014694
5684.765625	-71.938011
5770.898438	-67.822227
5857.031250	-67.058479
5943.164063	-59.388538
6029.296875	-55.883461
6115.429688	-60.630527
6201.562500	-68.306686
6287.695313	-71.726364
6373.828125	-75.764954
6459.960938	-75.367920
6546.093750	-74.499268
6632.226563	-74.536537
6718.359375	-72.665543
6804.492188	-73.830528
6890.625000	-76.200081
6976.757813	-76.508217
7062.890625	-77.037270
7149.023438	-76.635567
7235.156250	-75.607613
7321.289063	-78.396782
7407.421875	-82.743156
7493.554688	-72.332581
7579.687500	-70.157623
7665.820313	-70.353249
7751.953125	-69.940300
7838.085938	-68.212715
7924.218750	-68.796852
8010.351563	-76.319260
8096.484375	-80.505196
8182.617188	-79.916069
8268.750000	-81.169212
8354.882813	-84.986664
8441.015625	-91.036629
8527.148438	-86.819397
8613.281250	-84.062485
8699.414063	-81.961021
8785.546875	-81.353317
8871.679688	-84.316765
8957.812500	-87.912300
9043.945313	-84.392738
9130.078125	-86.784103
9216.210938	-81.952187
9302.343750	-78.365753
9388.476563	-81.052109
9474.609375	-87.421333
9560.742188	-89.238754
9646.875000	-89.959694
9733.007813	-85.923004
9819.140625	-87.930618
9905.273438	-87.150429
9991.406250	-86.765877
10077.539063	-92.126587
10163.671875	-91.392838
10249.804688	-86.784889
10335.937500	-89.566261
10422.070313	-92.948807
10508.203125	-90.563667
10594.335938	-91.327118
10680.468750	-88.492378
10766.601563	-82.406174
10852.734375	-78.921677
10938.867188	-79.401871
11025.000000	-79.658447
11111.132813	-78.031250
11197.265625	-77.449997
11283.398438	-79.566948
11369.531250	-81.274986
11455.664063	-80.322350
11541.796875	-77.622208
11627.929688	-77.973755
11714.062500	-81.140312
11800.195313	-85.894951
11886.328125	-93.453125
11972.460938	-95.687828
12058.593750	-90.691544
12144.726563	-85.547119
12230.859375	-80.237915
12316.992188	-79.329323
12403.125000	-82.816772
12489.257813	-87.384682
12575.390625	-91.449295
12661.523438	-90.940987
12747.656250	-87.244667
12833.789063	-86.723701
12919.921875	-93.547012
13006.054688	-94.411064
13092.187500	-91.966705
13178.320313	-92.275192
13264.453125	-94.053131
13350.585938	-94.498589
13436.718750	-96.354874
13522.851563	-96.899353
13608.984375	-96.366409
13695.117188	-99.811295
13781.250000	-103.131577
13867.382813	-98.921249
13953.515625	-96.732727
14039.648438	-99.803825
14125.781250	-97.884521
14211.914063	-98.512337
14298.046875	-95.640884
14384.179688	-91.567711
14470.312500	-90.805374
14556.445313	-92.737373
14642.578125	-91.959015
14728.710938	-90.277710
14814.843750	-88.500328
14900.976563	-86.911476
14987.109375	-87.491890
15073.242188	-91.182045
15159.375000	-96.416962
15245.507813	-97.783119
15331.640625	-93.841888
15417.773438	-90.496895
15503.906250	-88.971420
15590.039063	-88.488121
15676.171875	-87.910179
15762.304688	-86.836937
15848.437500	-87.565895
15934.570313	-89.114365
16020.703125	-87.730377
16106.835938	-86.627853
16192.968750	-87.768471
16279.101563	-89.839752
16365.234375	-91.979042
16451.367188	-94.723129
16537.500000	-96.487808
16623.632813	-97.871315
16709.765625	-99.457832
16795.898438	-99.572540
16882.031250	-100.289520
16968.164063	-102.070412
17054.296875	-104.059059
17140.429688	-105.671738
17226.562500	-106.196564
17312.695313	-106.692398
17398.828125	-106.944504
17484.960938	-107.266655
17571.093750	-106.792793
17657.226563	-106.263412
17743.359375	-106.099106
17829.492188	-105.592949
17915.625000	-104.393867
18001.757813	-104.438591
18087.890625	-103.393318
18174.023438	-102.789711
18260.156250	-104.562164
18346.289063	-109.008034
18432.421875	-110.960289
18518.554688	-108.756546
18604.687500	-106.738716
18690.820313	-105.600616
18776.953125	-106.083496
18863.085938	-108.495911
18949.218750	-111.989151
19035.351563	-112.788658
19121.484375	-110.913719
19207.617188	-110.760864
19293.750000	-111.848976
19379.882813	-112.437416
19466.015625	-114.468063
19552.148438	-116.324028
19638.281250	-119.137413
19724.414063	-123.048553
19810.546875	-125.894119
19896.679688	-127.662437
19982.812500	-129.448029
20068.945313	-131.423996
20155.078125	-132.097321
20241.210938	-130.201630
20327.343750	-129.873138
20413.476563	-130.743484
20499.609375	-132.189865
20585.742188	-133.898239
20671.875000	-135.939514
20758.007813	-137.670410
20844.140625	-138.449249
20930.273438	-138.068146
21016.406250	-139.446167
21102.539063	-140.388794
21188.671875	-143.590118
21274.804688	-143.451401
21360.937500	-144.011780
21447.070313	-142.959274
21533.203125	-145.172134
21619.335938	-147.700684
21705.468750	-150.266296
21791.601563	-153.363968
21877.734375	-153.598816
21963.867188	-153.755554
