Frequency (Hz)	Level (dB)
86.132813	-59.233372
172.265625	-56.188549
258.398438	-58.964924
344.531250	-63.568253
430.664063	-64.155586
516.796875	-64.689980
602.929688	-66.300102
689.062500	-67.958145
775.195313	-69.405975
861.328125	-71.162849
947.460938	-74.786278
1033.593750	-81.410919
1119.726563	-70.425041
1205.859375	-67.170677
1291.992188	-67.417839
1378.125000	-69.650993
1464.257813	-71.100952
1550.390625	-68.587685
1636.523438	-67.330856
1722.656250	-66.977097
1808.789063	-72.763702
1894.921875	-71.581970
1981.054688	-65.373520
2067.187500	-62.561329
2153.320313	-63.063793
2239.453125	-66.980591
2325.585938	-74.775841
2411.718750	-67.160629
2497.851563	-66.767303
2583.984375	-71.458870
2670.117188	-67.958618
2756.250000	-68.091591
2842.382813	-70.357292
2928.515625	-74.390205
3014.648438	-79.124969
3100.781250	-75.479988
3186.914063	-71.294563
3273.046875	-71.053734
3359.179688	-70.606133
3445.312500	-67.268768
3531.445313	-64.623260
3617.578125	-64.235649
3703.710938	-70.396240
3789.843750	-78.924652
3875.976563	-72.593597
3962.109375	-66.641914
4048.242188	-57.481472
4134.375000	-53.806179
4220.507813	-54.727665
4306.640625	-57.322823
4392.773438	-60.180756
4478.906250	-63.288025
4565.039063	-63.164948
4651.171875	-62.311520
4737.304688	-65.163315
4823.437500	-67.441261
4909.570313	-64.973984
4995.703125	-62.332767
5081.835938	-60.377556
5167.968750	-57.905010
5254.101563	-56.982983
5340.234375	-61.118774
5426.367188	-66.528221
5512.500000	-65.653778
5598.632813	-65.374847
5684.765625	-62.082127
5770.898438	-57.972359
5857.031250	-55.099155
5943.164063	-54.307106
6029.296875	-55.399349
6115.429688	-59.201736
6201.562500	-64.652710
6287.695313	-69.219757
6373.828125	-74.518936
6459.960938	-81.784767
6546.093750	-81.918900
6632.226563	-79.455330
6718.359375	-79.546127
6804.492188	-80.188179
6890.625000	-79.946465
6976.757813	-77.434837
7062.890625	-75.362358
7149.023438	-77.308159
7235.156250	-80.062363
7321.289063	-77.604774
7407.421875	-73.182869
7493.554688	-68.294144
7579.687500	-66.453247
7665.820313	-66.746338
7751.953125	-68.582848
7838.085938	-71.053055
7924.218750	-73.040794
8010.351563	-74.402756
8096.484375	-76.624222
8182.617188	-80.109604
8268.750000	-84.697472
8354.882813	-80.908035
8441.015625	-76.782722
8527.148438	-75.279419
8613.281250	-76.282127
8699.414063	-79.315811
8785.546875	-81.729050
8871.679688	-79.927284
8957.812500	-79.118362
9043.945313	-80.997055
9130.078125	-85.641090
9216.210938	-90.612000
9302.343750	-83.469795
9388.476563	-79.914314
9474.609375	-78.753975
9560.742188	-80.283424
9646.875000	-83.360176
9733.007813	-82.104637
9819.140625	-81.433929
9905.273438	-83.504982
9991.406250	-86.339775
10077.539063	-87.707306
10163.671875	-84.153839
10249.804688	-79.301796
10335.937500	-76.369720
10422.070313	-74.579529
10508.203125	-72.986023
10594.335938	-72.748398
10680.468750	-75.557709
10766.601563	-80.735619
10852.734375	-81.644661
10938.867188	-81.322311
11025.000000	-84.152031
11111.132813	-92.018944
11197.265625	-87.819527
11283.398438	-79.674706
11369.531250	-75.940086
11455.664063	-74.981583
11541.796875	-76.806564
11627.929688	-82.852669
11714.062500	-87.532867
11800.195313	-81.951340
11886.328125	-79.689751
11972.460938	-77.807816
12058.593750	-75.605675
12144.726563	-75.064262
12230.859375	-76.572723
12316.992188	-79.625816
12403.125000	-82.998535
12489.257813	-82.788673
12575.390625	-83.041756
12661.523438	-86.554642
12747.656250	-92.069901
12833.789063	-96.041405
12919.921875	-95.522209
13006.054688	-89.500229
13092.187500	-87.080841
13178.320313	-88.518127
13264.453125	-92.295204
13350.585938	-86.943291
13436.718750	-83.537132
13522.851563	-82.840385
13608.984375	-83.861267
13695.117188	-86.150871
13781.250000	-87.926964
13867.382813	-90.431793
13953.515625	-98.495430
14039.648438	-94.600647
14125.781250	-93.439377
14211.914063	-93.514740
14298.046875	-90.860741
14384.179688	-90.371376
14470.312500	-88.483406
14556.445313	-86.730576
14642.578125	-86.565399
14728.710938	-86.359245
14814.843750	-84.522537
14900.976563	-84.302040
14987.109375	-88.077629
15073.242188	-90.658127
15159.375000	-86.822807
15245.507813	-85.243210
15331.640625	-86.537956
15417.773438	-91.836678
15503.906250	-94.708565
15590.039063	-85.193092
15676.171875	-80.543625
15762.304688	-78.893730
15848.437500	-79.814980
15934.570313	-82.906990
16020.703125	-87.770409
16106.835938	-95.248528
16192.968750	-108.973640
16279.101563	-96.512993
16365.234375	-93.495590
16451.367188	-93.618210
16537.500000	-94.757774
16623.632813	-96.769638
16709.765625	-99.150162
16795.898438	-101.077843
16882.031250	-101.882637
16968.164063	-101.450874
17054.296875	-102.555191
17140.429688	-103.924675
17226.562500	-102.394646
17312.695313	-100.426056
17398.828125	-99.641258
17484.960938	-100.645576
17571.093750	-102.372818
17657.226563	-104.700600
17743.359375	-106.543465
17829.492188	-107.321136
17915.625000	-105.237366
18001.757813	-100.932358
18087.890625	-98.587929
18174.023438	-97.661087
18260.156250	-97.615822
18346.289063	-98.266647
18432.421875	-99.867401
18518.554688	-102.910698
18604.687500	-107.343582
18690.820313	-111.970451
18776.953125	-114.644554
18863.085938	-115.558273
18949.218750	-117.271461
19035.351563	-119.377747
19121.484375	-123.666809
19207.617188	-120.269119
19293.750000	-115.737312
19379.882813	-116.162796
19466.015625	-118.833107
19552.148438	-120.047226
19638.281250	-119.019836
19724.414063	-118.515808
19810.546875	-118.933090
19896.679688	-120.229523
19982.812500	-123.094917
20068.945313	-127.168907
20155.078125	-129.746536
20241.210938	-129.606308
20327.343750	-130.742142
20413.476563	-132.107864
20499.609375	-129.975876
20585.742188	-129.601913
20671.875000	-133.076538
20758.007813	-138.649765
20844.140625	-138.583893
20930.273438	-142.117783
21016.406250	-141.994400
21102.539063	-141.631897
21188.671875	-142.564835
21274.804688	-143.259323
21360.937500	-143.600540
21447.070313	-143.541107
21533.203125	-144.673248
21619.335938	-145.464828
21705.468750	-144.917160
21791.601563	-145.424362
21877.734375	-146.546524
21963.867188	-147.013199
