Frequency (Hz)	Level (dB)
86.132813	-58.309536
172.265625	-55.603596
258.398438	-59.638329
344.531250	-61.671070
430.664063	-56.594444
516.796875	-57.547318
602.929688	-62.606781
689.062500	-64.598183
775.195313	-66.437393
861.328125	-67.628342
947.460938	-67.495903
1033.593750	-67.356621
1119.726563	-66.128700
1205.859375	-63.784122
1291.992188	-61.774059
1378.125000	-60.202343
1464.257813	-54.352680
1550.390625	-51.237942
1636.523438	-56.018372
1722.656250	-61.646164
1808.789063	-63.776604
1894.921875	-64.982910
1981.054688	-55.394085
2067.187500	-49.188385
2153.320313	-51.282391
2239.453125	-61.634422
2325.585938	-65.663071
2411.718750	-62.700581
2497.851563	-61.345745
2583.984375	-64.582703
2670.117188	-66.931313
2756.250000	-67.675194
2842.382813	-66.469559
2928.515625	-67.013626
3014.648438	-66.156525
3100.781250	-68.221886
3186.914063	-66.214569
3273.046875	-62.781780
3359.179688	-58.724342
3445.312500	-56.240219
3531.445313	-61.036335
3617.578125	-64.978233
3703.710938	-71.203682
3789.843750	-67.285599
3875.976563	-62.755939
3962.109375	-60.158756
4048.242188	-55.933002
4134.375000	-55.412704
4220.507813	-62.004147
4306.640625	-72.928146
4392.773438	-76.364449
4478.906250	-64.350433
4565.039063	-60.369560
4651.171875	-62.926743
4737.304688	-67.351364
4823.437500	-69.996857
4909.570313	-69.468323
4995.703125	-66.549202
5081.835938	-62.026676
5167.968750	-59.548550
5254.101563	-60.450863
5340.234375	-58.935085
5426.367188	-59.779465
5512.500000	-63.366970
5598.632813	-63.397717
5684.765625	-61.563400
5770.898438	-58.795670
5857.031250	-56.837208
5943.164063	-56.518185
6029.296875	-56.902153
6115.429688	-61.315777
6201.562500	-66.759918
6287.695313	-72.412628
6373.828125	-74.964371
6459.960938	-77.325691
6546.093750	-76.144943
6632.226563	-76.845001
6718.359375	-79.121803
6804.492188	-81.346626
6890.625000	-81.063103
6976.757813	-79.750580
7062.890625	-76.175102
7149.023438	-77.917763
7235.156250	-81.538147
7321.289063	-84.284073
7407.421875	-85.937798
7493.554688	-79.388603
7579.687500	-77.626640
7665.820313	-74.043503
7751.953125	-77.297737
7838.085938	-83.961777
7924.218750	-79.233658
8010.351563	-78.146484
8096.484375	-81.709160
8182.617188	-84.372917
8268.750000	-88.017738
8354.882813	-90.102493
8441.015625	-90.600136
8527.148438	-85.915565
8613.281250	-85.519691
8699.414063	-81.099281
8785.546875	-80.417923
8871.679688	-80.357231
8957.812500	-82.352768
9043.945313	-84.527298
9130.078125	-85.029404
9216.210938	-81.051453
9302.343750	-79.952431
9388.476563	-81.961098
9474.609375	-82.461349
9560.742188	-78.333916
9646.875000	-76.430641
9733.007813	-77.624657
9819.140625	-78.787506
9905.273438	-79.485039
9991.406250	-80.167595
10077.539063	-80.374405
10163.671875	-80.554665
10249.804688	-81.428841
10335.937500	-83.896042
10422.070313	-82.449631
10508.203125	-78.941895
10594.335938	-75.857277
10680.468750	-77.075073
10766.601563	-81.514503
10852.734375	-84.547356
10938.867188	-85.093498
11025.000000	-85.573540
11111.132813	-84.958557
11197.265625	-83.189224
11283.398438	-82.342293
11369.531250	-82.228233
11455.664063	-81.589142
11541.796875	-80.368225
11627.929688	-80.076721
11714.062500	-78.977837
11800.195313	-78.171677
11886.328125	-77.585312
11972.460938	-76.151100
12058.593750	-72.615776
12144.726563	-69.656525
12230.859375	-70.412178
12316.992188	-73.511009
12403.125000	-77.026024
12489.257813	-80.401558
12575.390625	-82.472580
12661.523438	-83.273651
12747.656250	-82.982910
12833.789063	-83.349434
12919.921875	-84.700378
13006.054688	-86.338219
13092.187500	-89.528511
13178.320313	-92.207802
13264.453125	-90.965782
13350.585938	-88.817162
13436.718750	-87.954117
13522.851563	-90.362015
13608.984375	-94.335899
13695.117188	-95.372345
13781.250000	-92.979568
13867.382813	-89.889198
13953.515625	-88.270752
14039.648438	-87.453186
14125.781250	-88.462944
14211.914063	-90.527985
14298.046875	-94.052696
14384.179688	-95.307442
14470.312500	-96.229706
14556.445313	-96.862206
14642.578125	-92.717194
14728.710938	-90.490341
14814.843750	-90.266930
14900.976563	-90.593719
14987.109375	-92.488960
15073.242188	-94.971359
15159.375000	-93.703033
15245.507813	-90.485504
15331.640625	-89.383057
15417.773438	-90.178818
15503.906250	-93.715965
15590.039063	-96.400581
15676.171875	-93.642815
15762.304688	-92.852402
15848.437500	-94.814148
15934.570313	-99.795250
16020.703125	-104.614555
16106.835938	-107.038208
16192.968750	-110.734047
16279.101563	-106.860046
16365.234375	-103.626747
16451.367188	-101.617592
16537.500000	-100.507103
16623.632813	-101.850975
16709.765625	-103.833076
16795.898438	-106.277252
16882.031250	-111.603531
16968.164063	-117.119263
17054.296875	-115.482521
17140.429688	-113.543869
17226.562500	-110.084808
17312.695313	-107.783340
17398.828125	-107.344559
17484.960938	-107.303322
17571.093750	-109.530502
17657.226563	-111.967278
17743.359375	-114.779648
17829.492188	-116.166084
17915.625000	-109.385925
18001.757813	-105.769478
18087.890625	-103.802933
18174.023438	-102.373856
18260.156250	-101.101608
18346.289063	-101.101440
18432.421875	-102.540680
18518.554688	-104.428268
18604.687500	-106.180138
18690.820313	-107.683937
18776.953125	-109.363670
18863.085938	-110.618561
18949.218750	-111.951866
19035.351563	-113.300545
19121.484375	-114.178650
19207.617188	-115.805649
19293.750000	-118.124702
19379.882813	-120.656181
19466.015625	-123.168030
19552.148438	-125.568604
19638.281250	-126.999962
19724.414063	-129.498260
19810.546875	-130.441528
19896.679688	-128.953445
19982.812500	-126.846558
20068.945313	-125.836632
20155.078125	-123.928360
20241.210938	-125.103867
20327.343750	-129.974152
20413.476563	-132.517395
20499.609375	-135.211670
20585.742188	-137.610519
20671.875000	-135.821335
20758.007813	-135.267990
20844.140625	-137.235687
20930.273438	-138.834564
21016.406250	-139.036316
21102.539063	-139.336777
21188.671875	-138.968613
21274.804688	-141.985840
21360.937500	-145.185165
21447.070313	-146.877533
21533.203125	-149.481934
21619.335938	-152.988052
21705.468750	-151.469330
21791.601563	-153.547440
21877.734375	-154.782104
21963.867188	-156.572403
