Frequency (Hz)	Level (dB)
86.132813	-60.082104
172.265625	-56.949978
258.398438	-60.135372
344.531250	-65.138451
430.664063	-57.413601
516.796875	-58.190643
602.929688	-64.090813
689.062500	-67.585793
775.195313	-70.587486
861.328125	-70.680832
947.460938	-64.413536
1033.593750	-65.412979
1119.726563	-75.113922
1205.859375	-72.346054
1291.992188	-69.619591
1378.125000	-67.563034
1464.257813	-65.732933
1550.390625	-63.984127
1636.523438	-63.427032
1722.656250	-64.109810
1808.789063	-69.175568
1894.921875	-75.236046
1981.054688	-67.123306
2067.187500	-61.772377
2153.320313	-63.338898
2239.453125	-69.313904
2325.585938	-69.524864
2411.718750	-64.323875
2497.851563	-63.294155
2583.984375	-67.290764
2670.117188	-70.142097
2756.250000	-71.818329
2842.382813	-75.585724
2928.515625	-80.069450
3014.648438	-84.121231
3100.781250	-78.915184
3186.914063	-75.320496
3273.046875	-71.411179
3359.179688	-69.098251
3445.312500	-71.827484
3531.445313	-79.446190
3617.578125	-73.437706
3703.710938	-76.072594
3789.843750	-79.561264
3875.976563	-75.004219
3962.109375	-72.385712
4048.242188	-69.739662
4134.375000	-69.570541
4220.507813	-74.553360
4306.640625	-78.094452
4392.773438	-80.790657
4478.906250	-82.962440
4565.039063	-85.905952
4651.171875	-83.757736
4737.304688	-87.164795
4823.437500	-89.403893
4909.570313	-89.256256
4995.703125	-88.111580
5081.835938	-82.221169
5167.968750	-74.508385
5254.101563	-70.955109
5340.234375	-73.157639
5426.367188	-81.200989
5512.500000	-79.787880
5598.632813	-73.923477
5684.765625	-71.276863
5770.898438	-68.339218
5857.031250	-66.142387
5943.164063	-66.370934
6029.296875	-68.309769
6115.429688	-72.186104
6201.562500	-76.670181
6287.695313	-80.362595
6373.828125	-78.879951
6459.960938	-79.767258
6546.093750	-78.995888
6632.226563	-76.103943
6718.359375	-73.625549
6804.492188	-74.078545
6890.625000	-77.270172
6976.757813	-80.096184
7062.890625	-80.646645
7149.023438	-81.346298
7235.156250	-81.398605
7321.289063	-79.665810
7407.421875	-75.870827
7493.554688	-70.751846
7579.687500	-69.059891
7665.820313	-70.357674
7751.953125	-74.290054
7838.085938	-78.504669
7924.218750	-79.727539
8010.351563	-80.182083
8096.484375	-84.248535
8182.617188	-93.102730
8268.750000	-93.223122
8354.882813	-95.399292
8441.015625	-100.668549
8527.148438	-96.559441
8613.281250	-91.987106
8699.414063	-89.029793
8785.546875	-89.107346
8871.679688	-93.084740
8957.812500	-102.649979
9043.945313	-104.514374
9130.078125	-101.245781
9216.210938	-98.607193
9302.343750	-95.347305
9388.476563	-95.842880
9474.609375	-98.688423
9560.742188	-93.766991
9646.875000	-92.111252
9733.007813	-93.450760
9819.140625	-97.454979
9905.273438	-103.759537
9991.406250	-105.855362
10077.539063	-107.863007
10163.671875	-103.017044
10249.804688	-97.558205
10335.937500	-93.712318
10422.070313	-90.679680
10508.203125	-88.687645
10594.335938	-88.089706
10680.468750	-87.830048
10766.601563	-86.774216
10852.734375	-87.049210
10938.867188	-90.536018
11025.000000	-95.115616
11111.132813	-95.606209
11197.265625	-98.549980
11283.398438	-101.586990
11369.531250	-99.171364
11455.664063	-97.014282
11541.796875	-95.373734
11627.929688	-93.908478
11714.062500	-92.681717
11800.195313	-91.724426
11886.328125	-91.456535
11972.460938	-92.194054
12058.593750	-95.678886
12144.726563	-102.450050
12230.859375	-113.263283
12316.992188	-108.389923
12403.125000	-109.540619
12489.257813	-105.164352
12575.390625	-102.250877
12661.523438	-102.782433
12747.656250	-106.691734
12833.789063	-103.728691
12919.921875	-101.109261
13006.054688	-103.193428
13092.187500	-107.630119
13178.320313	-107.236794
13264.453125	-100.683289
13350.585938	-97.003120
13436.718750	-96.091293
13522.851563	-96.758583
13608.984375	-98.878403
13695.117188	-104.254150
13781.250000	-110.594292
13867.382813	-106.149338
13953.515625	-104.027809
14039.648438	-104.222832
14125.781250	-105.328148
14211.914063	-103.829086
14298.046875	-101.864365
14384.179688	-100.833588
14470.312500	-98.965172
14556.445313	-98.646767
14642.578125	-101.103043
14728.710938	-106.073952
14814.843750	-105.700035
14900.976563	-102.048653
14987.109375	-100.970619
15073.242188	-101.812386
15159.375000	-102.430710
15245.507813	-103.515984
15331.640625	-104.332123
15417.773438	-101.270401
15503.906250	-100.049133
15590.039063	-98.036636
15676.171875	-94.932854
15762.304688	-93.113029
15848.437500	-93.843597
15934.570313	-96.863457
16020.703125	-99.665451
16106.835938	-100.490204
16192.968750	-102.335373
16279.101563	-106.304695
16365.234375	-107.027603
16451.367188	-108.366364
16537.500000	-110.619034
16623.632813	-110.905632
16709.765625	-111.501221
16795.898438	-111.355507
16882.031250	-112.698235
16968.164063	-115.028252
17054.296875	-116.929893
17140.429688	-119.400360
17226.562500	-115.934448
17312.695313	-115.919334
17398.828125	-119.800140
17484.960938	-119.876190
17571.093750	-118.920982
17657.226563	-121.597862
17743.359375	-122.800224
17829.492188	-122.663322
17915.625000	-123.955200
18001.757813	-120.581123
18087.890625	-118.130806
18174.023438	-116.772980
18260.156250	-116.272644
18346.289063	-117.562675
18432.421875	-120.258797
18518.554688	-124.114586
18604.687500	-127.009003
18690.820313	-126.461845
18776.953125	-126.019882
18863.085938	-127.342850
18949.218750	-127.377090
19035.351563	-126.443985
19121.484375	-126.358543
19207.617188	-127.023834
19293.750000	-127.481598
19379.882813	-129.052216
19466.015625	-130.832748
19552.148438	-130.904419
19638.281250	-130.554794
19724.414063	-129.661133
19810.546875	-130.325577
19896.679688	-131.744202
19982.812500	-132.599777
20068.945313	-134.298340
20155.078125	-134.234467
20241.210938	-133.467697
20327.343750	-134.670700
20413.476563	-137.068939
20499.609375	-137.113571
20585.742188	-137.343430
20671.875000	-138.763321
20758.007813	-139.603500
20844.140625	-140.950027
20930.273438	-140.118011
21016.406250	-141.994476
21102.539063	-144.850082
21188.671875	-145.842163
21274.804688	-147.168640
21360.937500	-148.590149
21447.070313	-150.389542
21533.203125	-150.866440
21619.335938	-151.792282
21705.468750	-153.678101
21791.601563	-155.733551
21877.734375	-158.650131
21963.867188	-159.388657
