Frequency (Hz)	Level (dB)
86.132813	-52.067749
172.265625	-53.828384
258.398438	-56.516586
344.531250	-59.034286
430.664063	-54.600189
516.796875	-55.195061
602.929688	-59.466766
689.062500	-60.878441
775.195313	-58.897060
861.328125	-61.828022
947.460938	-63.139809
1033.593750	-62.860306
1119.726563	-65.877174
1205.859375	-62.609310
1291.992188	-60.821804
1378.125000	-61.787109
1464.257813	-62.127464
1550.390625	-60.065727
1636.523438	-58.755875
1722.656250	-60.033295
1808.789063	-65.103806
1894.921875	-72.909508
1981.054688	-61.921131
2067.187500	-56.742237
2153.320313	-57.152336
2239.453125	-60.377308
2325.585938	-64.043091
2411.718750	-67.308228
2497.851563	-68.934738
2583.984375	-67.984451
2670.117188	-65.991669
2756.250000	-66.410255
2842.382813	-68.491875
2928.515625	-70.411125
3014.648438	-70.083000
3100.781250	-68.668831
3186.914063	-67.515846
3273.046875	-66.692047
3359.179688	-67.193886
3445.312500	-70.418037
3531.445313	-77.359962
3617.578125	-71.205437
3703.710938	-69.672096
3789.843750	-74.344032
3875.976563	-77.475624
3962.109375	-72.567169
4048.242188	-65.491745
4134.375000	-62.256268
4220.507813	-64.205765
4306.640625	-67.276016
4392.773438	-67.873207
4478.906250	-70.453560
4565.039063	-79.517715
4651.171875	-87.355568
4737.304688	-87.816223
4823.437500	-85.530754
4909.570313	-82.723007
4995.703125	-82.066628
5081.835938	-77.983376
5167.968750	-72.903160
5254.101563	-70.580818
5340.234375	-70.781693
5426.367188	-72.256187
5512.500000	-75.475372
5598.632813	-80.797585
5684.765625	-83.637360
5770.898438	-80.762703
5857.031250	-74.654564
5943.164063	-72.420799
6029.296875	-72.282135
6115.429688	-74.821510
6201.562500	-78.057556
6287.695313	-89.987511
6373.828125	-81.293747
6459.960938	-77.246521
6546.093750	-75.399971
6632.226563	-75.606522
6718.359375	-76.774963
6804.492188	-75.104828
6890.625000	-72.830719
6976.757813	-73.555656
7062.890625	-73.983269
7149.023438	-71.806084
7235.156250	-71.936066
7321.289063	-73.203056
7407.421875	-73.446167
7493.554688	-74.504242
7579.687500	-74.699234
7665.820313	-74.170174
7751.953125	-73.000984
7838.085938	-71.420593
7924.218750	-70.996811
8010.351563	-70.754730
8096.484375	-72.313705
8182.617188	-72.720787
8268.750000	-67.898506
8354.882813	-66.595306
8441.015625	-70.071182
8527.148438	-78.521835
8613.281250	-84.156517
8699.414063	-78.689377
8785.546875	-78.351189
8871.679688	-77.196053
8957.812500	-76.875664
9043.945313	-77.643196
9130.078125	-78.760063
9216.210938	-79.774834
9302.343750	-81.666229
9388.476563	-85.256798
9474.609375	-90.246544
9560.742188	-83.409828
9646.875000	-80.525337
9733.007813	-84.509369
9819.140625	-86.303215
9905.273438	-82.803917
9991.406250	-81.784065
10077.539063	-81.614677
10163.671875	-79.971863
10249.804688	-80.197563
10335.937500	-84.119858
10422.070313	-84.717056
10508.203125	-77.808556
10594.335938	-73.494049
10680.468750	-72.745506
10766.601563	-73.357239
10852.734375	-74.901520
10938.867188	-79.248665
11025.000000	-83.108116
11111.132813	-81.851326
11197.265625	-79.775948
11283.398438	-79.765663
11369.531250	-81.877220
11455.664063	-83.139130
11541.796875	-85.637154
11627.929688	-81.966995
11714.062500	-79.492340
11800.195313	-77.121246
11886.328125	-73.344925
11972.460938	-73.561905
12058.593750	-78.478149
12144.726563	-82.666939
12230.859375	-80.849190
12316.992188	-78.319489
12403.125000	-76.035019
12489.257813	-75.025101
12575.390625	-75.582176
12661.523438	-78.261497
12747.656250	-80.287437
12833.789063	-81.196831
12919.921875	-86.101143
13006.054688	-88.690117
13092.187500	-86.010109
13178.320313	-86.857513
13264.453125	-90.603889
13350.585938	-103.630241
13436.718750	-92.360321
13522.851563	-89.079544
13608.984375	-86.426979
13695.117188	-83.569214
13781.250000	-81.540337
13867.382813	-81.441788
13953.515625	-83.524780
14039.648438	-90.231323
14125.781250	-98.030632
14211.914063	-91.486465
14298.046875	-95.254646
14384.179688	-91.595070
14470.312500	-85.773903
14556.445313	-84.396164
14642.578125	-88.663506
14728.710938	-91.356522
14814.843750	-86.646187
14900.976563	-85.269661
14987.109375	-84.820091
15073.242188	-86.765396
15159.375000	-87.361694
15245.507813	-85.677902
15331.640625	-87.266479
15417.773438	-94.835381
15503.906250	-87.767151
15590.039063	-85.076218
15676.171875	-84.981262
15762.304688	-84.415848
15848.437500	-85.170776
15934.570313	-88.708374
16020.703125	-92.738190
16106.835938	-93.187378
16192.968750	-91.587181
16279.101563	-91.165146
16365.234375	-92.202408
16451.367188	-94.458481
16537.500000	-99.349907
16623.632813	-95.125778
16709.765625	-93.750320
16795.898438	-97.076508
16882.031250	-97.658424
16968.164063	-100.261887
17054.296875	-103.606827
17140.429688	-97.772881
17226.562500	-93.949623
17312.695313	-93.175163
17398.828125	-95.422455
17484.960938	-98.282631
17571.093750	-95.984245
17657.226563	-92.671097
17743.359375	-91.873016
17829.492188	-94.787895
17915.625000	-98.096657
18001.757813	-96.557510
18087.890625	-92.841187
18174.023438	-90.514473
18260.156250	-89.006439
18346.289063	-88.656136
18432.421875	-89.883972
18518.554688	-91.557762
18604.687500	-92.902100
18690.820313	-95.116898
18776.953125	-97.416710
18863.085938	-99.220772
18949.218750	-99.519821
19035.351563	-101.150040
19121.484375	-99.508316
19207.617188	-100.312485
19293.750000	-105.705193
19379.882813	-105.085754
19466.015625	-100.370377
19552.148438	-99.393410
19638.281250	-103.520325
19724.414063	-111.295944
19810.546875	-106.578499
19896.679688	-106.700920
19982.812500	-111.186752
20068.945313	-104.778381
20155.078125	-102.944817
20241.210938	-105.658463
20327.343750	-113.009789
20413.476563	-108.540016
20499.609375	-107.598999
20585.742188	-112.260033
20671.875000	-114.603806
20758.007813	-109.885590
20844.140625	-108.783028
20930.273438	-108.909462
21016.406250	-110.139549
21102.539063	-112.440277
21188.671875	-116.752220
21274.804688	-121.748077
21360.937500	-126.797577
21447.070313	-126.296638
21533.203125	-123.533272
21619.335938	-130.106262
21705.468750	-132.795151
21791.601563	-131.277481
21877.734375	-135.674194
21963.867188	-143.085968
