Frequency (Hz)	Level (dB)
86.132813	-61.551342
172.265625	-58.938278
258.398438	-63.299686
344.531250	-65.579720
430.664063	-60.952644
516.796875	-61.813427
602.929688	-66.930412
689.062500	-68.585541
775.195313	-70.169777
861.328125	-71.146645
947.460938	-70.690193
1033.593750	-70.563400
1119.726563	-69.732407
1205.859375	-67.481339
1291.992188	-65.506714
1378.125000	-64.146553
1464.257813	-57.471935
1550.390625	-54.209091
1636.523438	-58.756035
1722.656250	-64.792007
1808.789063	-66.350403
1894.921875	-67.941162
1981.054688	-58.634613
2067.187500	-52.242737
2153.320313	-54.546837
2239.453125	-65.946228
2325.585938	-69.315544
2411.718750	-65.513229
2497.851563	-64.117462
2583.984375	-67.968239
2670.117188	-69.481369
2756.250000	-70.747726
2842.382813	-71.149170
2928.515625	-70.354195
3014.648438	-68.280205
3100.781250	-69.696861
3186.914063	-69.309418
3273.046875	-66.056076
3359.179688	-61.202438
3445.312500	-58.367874
3531.445313	-63.658146
3617.578125	-67.578239
3703.710938	-71.702400
3789.843750	-69.484169
3875.976563	-64.680481
3962.109375	-61.541851
4048.242188	-55.716103
4134.375000	-54.943966
4220.507813	-61.948421
4306.640625	-72.440468
4392.773438	-72.366486
4478.906250	-63.660011
4565.039063	-60.059052
4651.171875	-63.384857
4737.304688	-68.949066
4823.437500	-70.334213
4909.570313	-69.779793
4995.703125	-67.650780
5081.835938	-63.711098
5167.968750	-60.533298
5254.101563	-61.386345
5340.234375	-59.045712
5426.367188	-60.376884
5512.500000	-64.195045
5598.632813	-63.691032
5684.765625	-61.246758
5770.898438	-58.224598
5857.031250	-56.233364
5943.164063	-55.924992
6029.296875	-55.660671
6115.429688	-59.751389
6201.562500	-64.084885
6287.695313	-69.253571
6373.828125	-71.639992
6459.960938	-71.186829
6546.093750	-69.982162
6632.226563	-70.097977
6718.359375	-71.532906
6804.492188	-73.072899
6890.625000	-73.745697
6976.757813	-74.801819
7062.890625	-77.153938
7149.023438	-79.715454
7235.156250	-80.323326
7321.289063	-82.197495
7407.421875	-85.551559
7493.554688	-80.933014
7579.687500	-72.916687
7665.820313	-71.010750
7751.953125	-73.488892
7838.085938	-77.397675
7924.218750	-79.845360
8010.351563	-79.372246
8096.484375	-78.162811
8182.617188	-80.046013
8268.750000	-86.535782
8354.882813	-90.235748
8441.015625	-89.897934
8527.148438	-86.986649
8613.281250	-84.740898
8699.414063	-82.195923
8785.546875	-81.791122
8871.679688	-81.052155
8957.812500	-81.128105
9043.945313	-83.704041
9130.078125	-82.703011
9216.210938	-81.531708
9302.343750	-81.727722
9388.476563	-83.733818
9474.609375	-82.513702
9560.742188	-78.445564
9646.875000	-77.149460
9733.007813	-79.480438
9819.140625	-81.390610
9905.273438	-82.311584
9991.406250	-82.732841
10077.539063	-83.201523
10163.671875	-82.802246
10249.804688	-83.600464
10335.937500	-89.205276
10422.070313	-86.455574
10508.203125	-80.641708
10594.335938	-76.132996
10680.468750	-75.720833
10766.601563	-77.952293
10852.734375	-78.748772
10938.867188	-80.416420
11025.000000	-82.706787
11111.132813	-83.296562
11197.265625	-83.402687
11283.398438	-82.588364
11369.531250	-81.656998
11455.664063	-81.458145
11541.796875	-80.009689
11627.929688	-78.840889
11714.062500	-77.680809
11800.195313	-76.016212
11886.328125	-74.221008
11972.460938	-72.117249
12058.593750	-69.287407
12144.726563	-66.224907
12230.859375	-67.489449
12316.992188	-71.571426
12403.125000	-75.536278
12489.257813	-78.898247
12575.390625	-80.909340
12661.523438	-82.577736
12747.656250	-83.260345
12833.789063	-83.766327
12919.921875	-84.901802
13006.054688	-86.218811
13092.187500	-89.487526
13178.320313	-94.229980
13264.453125	-95.200546
13350.585938	-93.968590
13436.718750	-92.787346
13522.851563	-93.320000
13608.984375	-98.419174
13695.117188	-99.630836
13781.250000	-97.712372
13867.382813	-94.054588
13953.515625	-93.159439
14039.648438	-96.896675
14125.781250	-101.240097
14211.914063	-101.388046
14298.046875	-97.644592
14384.179688	-96.180099
14470.312500	-97.238777
14556.445313	-98.506424
14642.578125	-98.239876
14728.710938	-95.288635
14814.843750	-92.379440
14900.976563	-92.981346
14987.109375	-94.185669
15073.242188	-98.330009
15159.375000	-101.566277
15245.507813	-95.946899
15331.640625	-93.151123
15417.773438	-92.508919
15503.906250	-92.967400
15590.039063	-93.676826
15676.171875	-93.042648
15762.304688	-92.080734
15848.437500	-92.511711
15934.570313	-94.299675
16020.703125	-97.083778
16106.835938	-99.938507
16192.968750	-102.107605
16279.101563	-104.617813
16365.234375	-105.172508
16451.367188	-106.375198
16537.500000	-107.756882
16623.632813	-106.773170
16709.765625	-106.370827
16795.898438	-108.239616
16882.031250	-110.286430
16968.164063	-111.950523
17054.296875	-115.745644
17140.429688	-118.025940
17226.562500	-113.730957
17312.695313	-111.314003
17398.828125	-111.220123
17484.960938	-111.246559
17571.093750	-112.274193
17657.226563	-115.337181
17743.359375	-117.555450
17829.492188	-116.052208
17915.625000	-113.593918
18001.757813	-110.737587
18087.890625	-109.374634
18174.023438	-108.704880
18260.156250	-107.514748
18346.289063	-107.479019
18432.421875	-108.520447
18518.554688	-109.730537
18604.687500	-111.122108
18690.820313	-113.322922
18776.953125	-115.970673
18863.085938	-118.620018
18949.218750	-119.375221
19035.351563	-118.165680
19121.484375	-115.834259
19207.617188	-116.080444
19293.750000	-116.766602
19379.882813	-118.038986
19466.015625	-120.837463
19552.148438	-123.672562
19638.281250	-124.292824
19724.414063	-124.671211
19810.546875	-125.054276
19896.679688	-125.915047
19982.812500	-126.625275
20068.945313	-127.749062
20155.078125	-129.141571
20241.210938	-130.727814
20327.343750	-133.594254
20413.476563	-134.259644
20499.609375	-135.814499
20585.742188	-135.999939
20671.875000	-134.888290
20758.007813	-134.987869
20844.140625	-136.936386
20930.273438	-138.494125
21016.406250	-140.822662
21102.539063	-143.450836
21188.671875	-145.001999
21274.804688	-146.352646
21360.937500	-146.750748
21447.070313	-147.981796
21533.203125	-150.426758
21619.335938	-152.349289
21705.468750	-154.413712
21791.601563	-155.272400
21877.734375	-156.134613
21963.867188	-158.402786
