Frequency (Hz)	Level (dB)
86.132813	-60.792091
172.265625	-58.996773
258.398438	-61.364388
344.531250	-62.831684
430.664063	-65.004570
516.796875	-66.549339
602.929688	-68.018082
689.062500	-69.993637
775.195313	-73.813766
861.328125	-66.754646
947.460938	-62.994267
1033.593750	-66.054443
1119.726563	-65.934242
1205.859375	-63.148228
1291.992188	-63.282654
1378.125000	-56.751858
1464.257813	-55.697086
1550.390625	-60.376839
1636.523438	-63.234463
1722.656250	-63.310421
1808.789063	-62.845604
1894.921875	-63.082752
1981.054688	-58.856819
2067.187500	-59.101749
2153.320313	-61.937336
2239.453125	-64.962997
2325.585938	-70.065796
2411.718750	-69.384705
2497.851563	-67.221458
2583.984375	-63.831959
2670.117188	-60.160824
2756.250000	-65.440727
2842.382813	-76.399597
2928.515625	-82.246292
3014.648438	-91.761787
3100.781250	-90.555969
3186.914063	-88.045792
3273.046875	-85.088310
3359.179688	-84.046150
3445.312500	-74.542938
3531.445313	-72.977264
3617.578125	-79.611153
3703.710938	-83.921898
3789.843750	-82.023117
3875.976563	-79.172165
3962.109375	-76.509804
4048.242188	-76.421326
4134.375000	-70.337334
4220.507813	-64.555145
4306.640625	-63.597584
4392.773438	-66.430161
4478.906250	-70.215385
4565.039063	-71.727592
4651.171875	-71.108955
4737.304688	-71.488953
4823.437500	-71.137405
4909.570313	-66.836731
4995.703125	-61.280933
5081.835938	-59.163868
5167.968750	-61.934696
5254.101563	-67.684433
5340.234375	-69.993568
5426.367188	-65.415146
5512.500000	-66.879349
5598.632813	-69.575325
5684.765625	-69.711258
5770.898438	-68.031357
5857.031250	-64.942375
5943.164063	-56.714413
6029.296875	-56.019684
6115.429688	-65.218742
6201.562500	-71.612900
6287.695313	-77.589592
6373.828125	-79.854218
6459.960938	-80.804237
6546.093750	-82.875710
6632.226563	-85.501526
6718.359375	-88.941231
6804.492188	-89.145752
6890.625000	-86.393394
6976.757813	-84.354439
7062.890625	-78.377098
7149.023438	-78.687401
7235.156250	-86.550102
7321.289063	-91.988708
7407.421875	-89.103859
7493.554688	-86.084328
7579.687500	-86.919144
7665.820313	-84.051407
7751.953125	-80.246948
7838.085938	-79.637009
7924.218750	-81.628677
8010.351563	-81.541527
8096.484375	-78.790062
8182.617188	-76.072403
8268.750000	-76.238464
8354.882813	-77.623634
8441.015625	-80.979408
8527.148438	-84.206032
8613.281250	-86.120232
8699.414063	-83.616447
8785.546875	-82.094673
8871.679688	-82.744873
8957.812500	-80.836281
9043.945313	-79.229492
9130.078125	-77.318077
9216.210938	-76.465019
9302.343750	-79.423943
9388.476563	-84.490471
9474.609375	-86.557953
9560.742188	-87.247589
9646.875000	-89.121391
9733.007813	-88.597870
9819.140625	-89.498322
9905.273438	-93.579826
9991.406250	-91.652908
10077.539063	-89.472939
10163.671875	-87.055573
10249.804688	-86.770584
10335.937500	-87.587029
10422.070313	-86.749695
10508.203125	-85.602036
10594.335938	-81.454178
10680.468750	-79.361084
10766.601563	-81.358406
10852.734375	-82.530998
10938.867188	-82.804794
11025.000000	-82.110588
11111.132813	-82.884979
11197.265625	-84.275726
11283.398438	-84.723450
11369.531250	-83.469269
11455.664063	-84.180641
11541.796875	-86.473137
11627.929688	-87.690987
11714.062500	-85.273277
11800.195313	-82.207184
11886.328125	-79.487114
11972.460938	-78.225487
12058.593750	-78.438171
12144.726563	-78.178726
12230.859375	-77.228134
12316.992188	-77.465218
12403.125000	-78.404121
12489.257813	-80.140770
12575.390625	-82.678146
12661.523438	-87.566818
12747.656250	-91.361000
12833.789063	-90.612442
12919.921875	-90.955803
13006.054688	-91.165771
13092.187500	-90.323540
13178.320313	-91.290520
13264.453125	-95.453178
13350.585938	-100.911652
13436.718750	-103.024376
13522.851563	-101.062408
13608.984375	-100.435898
13695.117188	-100.753319
13781.250000	-100.733643
13867.382813	-99.102592
13953.515625	-98.781189
14039.648438	-99.481361
14125.781250	-100.528465
14211.914063	-102.003052
14298.046875	-101.376503
14384.179688	-102.642433
14470.312500	-103.100037
14556.445313	-99.953011
14642.578125	-100.819847
14728.710938	-101.044281
14814.843750	-99.727921
14900.976563	-99.132385
14987.109375	-98.235435
15073.242188	-97.245461
15159.375000	-95.999062
15245.507813	-95.648064
15331.640625	-95.784302
15417.773438	-96.138908
15503.906250	-95.845589
15590.039063	-95.841675
15676.171875	-95.672653
15762.304688	-94.994064
15848.437500	-95.700401
15934.570313	-98.261635
16020.703125	-101.131264
16106.835938	-104.610184
16192.968750	-105.773369
16279.101563	-106.174713
16365.234375	-108.068970
16451.367188	-109.830566
16537.500000	-108.044998
16623.632813	-107.724579
16709.765625	-110.684021
16795.898438	-115.125015
16882.031250	-119.796143
16968.164063	-120.639587
17054.296875	-118.407867
17140.429688	-114.862709
17226.562500	-114.137947
17312.695313	-115.758606
17398.828125	-118.174355
17484.960938	-119.726280
17571.093750	-118.924835
17657.226563	-117.967743
17743.359375	-117.369301
17829.492188	-115.872536
17915.625000	-113.879318
18001.757813	-111.938057
18087.890625	-110.920853
18174.023438	-110.559273
18260.156250	-112.677971
18346.289063	-115.612595
18432.421875	-118.553261
18518.554688	-121.150383
18604.687500	-121.335457
18690.820313	-122.159355
18776.953125	-123.656708
18863.085938	-122.341309
18949.218750	-120.029305
19035.351563	-117.998482
19121.484375	-116.389778
19207.617188	-115.325150
19293.750000	-115.684860
19379.882813	-116.842438
19466.015625	-120.156197
19552.148438	-124.839172
19638.281250	-127.739464
19724.414063	-125.161095
19810.546875	-123.535408
19896.679688	-124.299942
19982.812500	-124.802399
20068.945313	-125.152687
20155.078125	-125.676575
20241.210938	-125.740150
20327.343750	-127.321106
20413.476563	-129.386902
20499.609375	-132.296265
20585.742188	-134.217392
20671.875000	-134.214676
20758.007813	-136.143158
20844.140625	-136.855255
20930.273438	-137.142624
21016.406250	-138.484024
21102.539063	-140.324982
21188.671875	-142.853607
21274.804688	-144.827911
21360.937500	-145.565460
21447.070313	-146.446548
21533.203125	-147.325577
21619.335938	-149.241257
21705.468750	-150.465073
21791.601563	-153.166458
21877.734375	-155.057526
21963.867188	-154.809982
