Frequency (Hz)	Level (dB)
86.132813	-55.583755
172.265625	-58.152500
258.398438	-60.525234
344.531250	-60.928936
430.664063	-62.037014
516.796875	-64.258591
602.929688	-65.811905
689.062500	-65.442245
775.195313	-63.961594
861.328125	-57.502426
947.460938	-55.595951
1033.593750	-60.043930
1119.726563	-62.125919
1205.859375	-58.047245
1291.992188	-57.757511
1378.125000	-53.675880
1464.257813	-51.905865
1550.390625	-56.155632
1636.523438	-61.999817
1722.656250	-59.937729
1808.789063	-56.001408
1894.921875	-56.351521
1981.054688	-54.770828
2067.187500	-52.536266
2153.320313	-53.777241
2239.453125	-58.793888
2325.585938	-62.841290
2411.718750	-63.475628
2497.851563	-62.198135
2583.984375	-59.839996
2670.117188	-54.232754
2756.250000	-57.146141
2842.382813	-62.876633
2928.515625	-64.509094
3014.648438	-66.236351
3100.781250	-67.197250
3186.914063	-67.098976
3273.046875	-66.206619
3359.179688	-65.284187
3445.312500	-59.266499
3531.445313	-59.963036
3617.578125	-65.872643
3703.710938	-75.939339
3789.843750	-78.632278
3875.976563	-72.017281
3962.109375	-70.909317
4048.242188	-73.740601
4134.375000	-79.108406
4220.507813	-71.041977
4306.640625	-72.481026
4392.773438	-81.420944
4478.906250	-82.799866
4565.039063	-78.927849
4651.171875	-81.789223
4737.304688	-83.402641
4823.437500	-81.230278
4909.570313	-77.616394
4995.703125	-74.538742
5081.835938	-74.215019
5167.968750	-73.511742
5254.101563	-73.488426
5340.234375	-71.199860
5426.367188	-64.301064
5512.500000	-66.174011
5598.632813	-71.982765
5684.765625	-73.804504
5770.898438	-73.067894
5857.031250	-68.588020
5943.164063	-62.989609
6029.296875	-62.157574
6115.429688	-66.675255
6201.562500	-74.102043
6287.695313	-78.900002
6373.828125	-80.718391
6459.960938	-90.965828
6546.093750	-81.095940
6632.226563	-81.411270
6718.359375	-82.855446
6804.492188	-82.658257
6890.625000	-80.178711
6976.757813	-76.036354
7062.890625	-75.127487
7149.023438	-74.475235
7235.156250	-72.726685
7321.289063	-77.155708
7407.421875	-82.001404
7493.554688	-78.683281
7579.687500	-75.522583
7665.820313	-79.476723
7751.953125	-76.438110
7838.085938	-75.443565
7924.218750	-78.171173
8010.351563	-79.248650
8096.484375	-80.519386
8182.617188	-81.921272
8268.750000	-75.837059
8354.882813	-73.124168
8441.015625	-73.620155
8527.148438	-73.469604
8613.281250	-74.755287
8699.414063	-74.764381
8785.546875	-73.554642
8871.679688	-72.729355
8957.812500	-72.896774
9043.945313	-74.508453
9130.078125	-77.512650
9216.210938	-81.449821
9302.343750	-83.687263
9388.476563	-81.955940
9474.609375	-80.515923
9560.742188	-80.399567
9646.875000	-82.546799
9733.007813	-84.950943
9819.140625	-82.096413
9905.273438	-81.393379
9991.406250	-84.379662
10077.539063	-90.017036
10163.671875	-94.977600
10249.804688	-93.878128
10335.937500	-89.263123
10422.070313	-84.801872
10508.203125	-81.998894
10594.335938	-80.104485
10680.468750	-80.098038
10766.601563	-82.513802
10852.734375	-85.384865
10938.867188	-91.586586
11025.000000	-92.018158
11111.132813	-88.600113
11197.265625	-87.452538
11283.398438	-89.478607
11369.531250	-91.096611
11455.664063	-87.242783
11541.796875	-85.494217
11627.929688	-85.322517
11714.062500	-83.301598
11800.195313	-85.412529
11886.328125	-83.729424
11972.460938	-80.484001
12058.593750	-77.018761
12144.726563	-76.550285
12230.859375	-78.396210
12316.992188	-83.642349
12403.125000	-83.989632
12489.257813	-85.021751
12575.390625	-90.687538
12661.523438	-92.382957
12747.656250	-95.611694
12833.789063	-98.457695
12919.921875	-98.267006
13006.054688	-93.578468
13092.187500	-91.087090
13178.320313	-92.205681
13264.453125	-99.095306
13350.585938	-102.696060
13436.718750	-95.958908
13522.851563	-91.120422
13608.984375	-91.259674
13695.117188	-92.896355
13781.250000	-92.825706
13867.382813	-93.631104
13953.515625	-93.272057
14039.648438	-92.804787
14125.781250	-93.368927
14211.914063	-93.670906
14298.046875	-96.613609
14384.179688	-93.773308
14470.312500	-92.502914
14556.445313	-93.886292
14642.578125	-97.457733
14728.710938	-96.742355
14814.843750	-99.299530
14900.976563	-100.700317
14987.109375	-99.033142
15073.242188	-97.645531
15159.375000	-95.883057
15245.507813	-94.814926
15331.640625	-96.371605
15417.773438	-96.549469
15503.906250	-91.253136
15590.039063	-87.708458
15676.171875	-88.131607
15762.304688	-88.578140
15848.437500	-88.692268
15934.570313	-92.051476
16020.703125	-95.470093
16106.835938	-94.458504
16192.968750	-90.719124
16279.101563	-90.133202
16365.234375	-89.883682
16451.367188	-92.681274
16537.500000	-93.491295
16623.632813	-92.329010
16709.765625	-90.376526
16795.898438	-89.936470
16882.031250	-92.469734
16968.164063	-93.759529
17054.296875	-94.473312
17140.429688	-93.618317
17226.562500	-92.974686
17312.695313	-94.311783
17398.828125	-94.438263
17484.960938	-95.516281
17571.093750	-94.506088
17657.226563	-95.654205
17743.359375	-95.505760
17829.492188	-94.279388
17915.625000	-92.893326
18001.757813	-93.709442
18087.890625	-93.598373
18174.023438	-93.273590
18260.156250	-97.473999
18346.289063	-97.023132
18432.421875	-96.976357
18518.554688	-99.897133
18604.687500	-105.995934
18690.820313	-102.263481
18776.953125	-101.934662
18863.085938	-103.308311
18949.218750	-105.050880
19035.351563	-105.096283
19121.484375	-102.728081
19207.617188	-100.580559
19293.750000	-103.261810
19379.882813	-107.034554
19466.015625	-108.972580
19552.148438	-108.303215
19638.281250	-105.655006
19724.414063	-106.313286
19810.546875	-110.474426
19896.679688	-107.582588
19982.812500	-110.031052
20068.945313	-111.839249
20155.078125	-117.057999
20241.210938	-115.579514
20327.343750	-116.941971
20413.476563	-117.432243
20499.609375	-118.234650
20585.742188	-120.202316
20671.875000	-124.843063
20758.007813	-123.471939
20844.140625	-125.044266
20930.273438	-123.220200
21016.406250	-124.623566
21102.539063	-125.720032
21188.671875	-126.023026
21274.804688	-128.628983
21360.937500	-131.656052
21447.070313	-128.329620
21533.203125	-129.426956
21619.335938	-131.671249
21705.468750	-132.652863
21791.601563	-130.335999
21877.734375	-131.349899
21963.867188	-133.826965
