Frequency (Hz)	Level (dB)
86.132813	-61.362518
172.265625	-57.057537
258.398438	-57.305298
344.531250	-59.294456
430.664063	-61.598133
516.796875	-62.990410
602.929688	-64.004593
689.062500	-65.406197
775.195313	-67.204124
861.328125	-69.737503
947.460938	-75.107330
1033.593750	-74.778877
1119.726563	-70.515327
1205.859375	-67.883484
1291.992188	-67.982788
1378.125000	-71.969467
1464.257813	-68.166267
1550.390625	-66.981377
1636.523438	-67.753311
1722.656250	-71.044235
1808.789063	-74.313942
1894.921875	-65.762070
1981.054688	-61.286407
2067.187500	-63.940243
2153.320313	-69.454834
2239.453125	-74.923286
2325.585938	-78.270020
2411.718750	-70.712662
2497.851563	-67.994194
2583.984375	-67.004868
2670.117188	-67.657257
2756.250000	-71.228493
2842.382813	-67.698418
2928.515625	-67.594841
3014.648438	-71.958168
3100.781250	-71.339745
3186.914063	-69.640686
3273.046875	-68.517586
3359.179688	-67.081879
3445.312500	-65.276657
3531.445313	-64.394608
3617.578125	-69.239746
3703.710938	-73.686470
3789.843750	-67.125145
3875.976563	-60.545998
3962.109375	-56.780659
4048.242188	-60.211834
4134.375000	-64.252396
4220.507813	-67.528275
4306.640625	-69.090736
4392.773438	-69.683678
4478.906250	-72.779221
4565.039063	-78.467911
4651.171875	-80.513123
4737.304688	-79.329651
4823.437500	-76.680862
4909.570313	-73.437531
4995.703125	-71.223244
5081.835938	-69.825020
5167.968750	-70.659920
5254.101563	-70.805862
5340.234375	-69.062576
5426.367188	-67.277046
5512.500000	-69.481949
5598.632813	-72.814270
5684.765625	-71.876358
5770.898438	-70.128998
5857.031250	-64.863991
5943.164063	-59.418137
6029.296875	-58.626915
6115.429688	-63.915619
6201.562500	-71.181793
6287.695313	-79.165436
6373.828125	-80.355713
6459.960938	-80.371880
6546.093750	-79.853981
6632.226563	-79.889641
6718.359375	-80.262001
6804.492188	-82.027458
6890.625000	-83.854256
6976.757813	-85.762306
7062.890625	-77.513123
7149.023438	-73.648773
7235.156250	-73.030823
7321.289063	-75.390236
7407.421875	-79.936409
7493.554688	-84.820084
7579.687500	-79.180092
7665.820313	-74.342400
7751.953125	-72.340401
7838.085938	-72.051018
7924.218750	-74.121124
8010.351563	-78.243210
8096.484375	-80.986740
8182.617188	-83.019669
8268.750000	-88.302887
8354.882813	-88.487892
8441.015625	-86.704956
8527.148438	-82.281265
8613.281250	-78.997864
8699.414063	-79.159119
8785.546875	-83.209358
8871.679688	-88.210144
8957.812500	-88.541168
9043.945313	-88.868591
9130.078125	-88.912956
9216.210938	-88.227852
9302.343750	-88.078087
9388.476563	-90.145317
9474.609375	-89.186150
9560.742188	-87.580544
9646.875000	-89.251198
9733.007813	-91.504745
9819.140625	-92.839859
9905.273438	-93.139534
9991.406250	-92.008247
10077.539063	-92.426125
10163.671875	-93.386818
10249.804688	-93.101913
10335.937500	-91.521027
10422.070313	-91.050789
10508.203125	-91.548462
10594.335938	-90.447433
10680.468750	-88.387436
10766.601563	-87.622841
10852.734375	-87.898888
10938.867188	-88.163345
11025.000000	-86.782639
11111.132813	-86.603912
11197.265625	-89.012024
11283.398438	-88.168495
11369.531250	-86.084030
11455.664063	-85.170670
11541.796875	-86.786049
11627.929688	-85.524323
11714.062500	-83.157761
11800.195313	-82.107307
11886.328125	-81.765266
11972.460938	-82.521385
12058.593750	-80.573387
12144.726563	-73.425049
12230.859375	-71.228493
12316.992188	-72.973549
12403.125000	-76.008514
12489.257813	-79.703537
12575.390625	-83.327217
12661.523438	-85.682526
12747.656250	-85.970428
12833.789063	-85.096405
12919.921875	-84.916916
13006.054688	-86.461472
13092.187500	-89.219856
13178.320313	-91.348709
13264.453125	-93.045464
13350.585938	-97.532387
13436.718750	-100.015915
13522.851563	-92.611076
13608.984375	-90.310394
13695.117188	-90.929024
13781.250000	-92.812141
13867.382813	-93.241127
13953.515625	-93.087494
14039.648438	-93.711220
14125.781250	-93.806618
14211.914063	-93.710999
14298.046875	-93.158859
14384.179688	-90.669220
14470.312500	-88.985466
14556.445313	-88.925430
14642.578125	-89.864258
14728.710938	-90.999306
14814.843750	-91.746513
14900.976563	-93.795815
14987.109375	-105.216148
15073.242188	-97.497360
15159.375000	-92.115814
15245.507813	-90.992203
15331.640625	-91.780304
15417.773438	-92.550117
15503.906250	-92.524170
15590.039063	-92.070892
15676.171875	-90.917191
15762.304688	-89.959862
15848.437500	-90.250618
15934.570313	-91.911873
16020.703125	-94.461517
16106.835938	-96.541519
16192.968750	-97.544365
16279.101563	-99.086151
16365.234375	-102.147194
16451.367188	-107.136879
16537.500000	-114.698257
16623.632813	-117.038116
16709.765625	-113.585358
16795.898438	-113.012062
16882.031250	-112.678314
16968.164063	-113.031433
17054.296875	-114.491714
17140.429688	-116.341599
17226.562500	-117.891060
17312.695313	-118.844292
17398.828125	-121.166481
17484.960938	-124.079208
17571.093750	-126.980637
17657.226563	-124.182770
17743.359375	-120.126045
17829.492188	-117.018425
17915.625000	-115.787331
18001.757813	-112.917374
18087.890625	-108.914413
18174.023438	-106.692947
18260.156250	-106.751053
18346.289063	-108.012672
18432.421875	-109.504364
18518.554688	-111.404411
18604.687500	-114.334953
18690.820313	-116.953278
18776.953125	-115.947784
18863.085938	-113.114120
18949.218750	-111.187584
19035.351563	-110.612343
19121.484375	-111.106056
19207.617188	-112.726913
19293.750000	-115.049927
19379.882813	-118.469383
19466.015625	-123.473953
19552.148438	-127.827461
19638.281250	-129.223770
19724.414063	-128.930878
19810.546875	-128.320374
19896.679688	-128.175232
19982.812500	-128.140991
20068.945313	-130.471939
20155.078125	-131.538467
20241.210938	-133.079681
20327.343750	-133.569824
20413.476563	-134.234818
20499.609375	-134.610748
20585.742188	-135.185593
20671.875000	-136.243652
20758.007813	-138.034515
20844.140625	-139.234467
20930.273438	-139.941254
21016.406250	-142.429962
21102.539063	-141.737732
21188.671875	-141.557098
21274.804688	-144.799286
21360.937500	-146.935547
21447.070313	-147.310760
21533.203125	-147.981018
21619.335938	-149.019302
21705.468750	-152.906433
21791.601563	-155.325546
21877.734375	-154.808578
21963.867188	-156.068451
