Frequency (Hz)	Level (dB)
86.132813	-45.761097
172.265625	-49.222721
258.398438	-51.132633
344.531250	-52.690140
430.664063	-54.531643
516.796875	-56.375473
602.929688	-57.536808
689.062500	-58.785252
775.195313	-59.343666
861.328125	-58.815475
947.460938	-56.455399
1033.593750	-60.032162
1119.726563	-62.392483
1205.859375	-62.653320
1291.992188	-64.005257
1378.125000	-58.412025
1464.257813	-55.585732
1550.390625	-60.187855
1636.523438	-62.268589
1722.656250	-64.076172
1808.789063	-61.421127
1894.921875	-63.051800
1981.054688	-57.230648
2067.187500	-52.138710
2153.320313	-56.459545
2239.453125	-59.616188
2325.585938	-61.222324
2411.718750	-60.242821
2497.851563	-60.239693
2583.984375	-55.439346
2670.117188	-52.093941
2756.250000	-55.418846
2842.382813	-61.730469
2928.515625	-60.427563
3014.648438	-58.797226
3100.781250	-58.160778
3186.914063	-57.974808
3273.046875	-57.385872
3359.179688	-56.764214
3445.312500	-49.899429
3531.445313	-48.898991
3617.578125	-57.169338
3703.710938	-61.052349
3789.843750	-66.169662
3875.976563	-70.599281
3962.109375	-70.996246
4048.242188	-70.245239
4134.375000	-70.354294
4220.507813	-69.174904
4306.640625	-69.301323
4392.773438	-68.758842
4478.906250	-70.095818
4565.039063	-70.900208
4651.171875	-71.270546
4737.304688	-70.475792
4823.437500	-73.129166
4909.570313	-68.309013
4995.703125	-58.058796
5081.835938	-53.446453
5167.968750	-54.257965
5254.101563	-57.260654
5340.234375	-59.052166
5426.367188	-55.357628
5512.500000	-56.832767
5598.632813	-63.498180
5684.765625	-63.902969
5770.898438	-61.638729
5857.031250	-56.207954
5943.164063	-47.694759
6029.296875	-46.812172
6115.429688	-52.796131
6201.562500	-59.050579
6287.695313	-63.309174
6373.828125	-65.684776
6459.960938	-66.199867
6546.093750	-66.487411
6632.226563	-66.184288
6718.359375	-65.915436
6804.492188	-63.690754
6890.625000	-60.728840
6976.757813	-59.889297
7062.890625	-59.446693
7149.023438	-59.937244
7235.156250	-59.171795
7321.289063	-57.927502
7407.421875	-56.545368
7493.554688	-55.801365
7579.687500	-54.680450
7665.820313	-56.366726
7751.953125	-57.913811
7838.085938	-59.676159
7924.218750	-60.288807
8010.351563	-60.859398
8096.484375	-59.218346
8182.617188	-56.399906
8268.750000	-56.557388
8354.882813	-60.602371
8441.015625	-67.652107
8527.148438	-71.345558
8613.281250	-70.176582
8699.414063	-65.980347
8785.546875	-62.761921
8871.679688	-65.846924
8957.812500	-68.419121
9043.945313	-70.437263
9130.078125	-70.628059
9216.210938	-70.522522
9302.343750	-69.632271
9388.476563	-70.988480
9474.609375	-72.940521
9560.742188	-73.310875
9646.875000	-70.318039
9733.007813	-69.172607
9819.140625	-70.115356
9905.273438	-71.438614
9991.406250	-73.757835
10077.539063	-77.386528
10163.671875	-79.749916
10249.804688	-79.412506
10335.937500	-77.265167
10422.070313	-74.257011
10508.203125	-73.090263
10594.335938	-69.055870
10680.468750	-65.871803
10766.601563	-66.986862
10852.734375	-70.666931
10938.867188	-74.221024
11025.000000	-75.917030
11111.132813	-77.183640
11197.265625	-79.243675
11283.398438	-79.507103
11369.531250	-79.128578
11455.664063	-80.071724
11541.796875	-77.368866
11627.929688	-76.400642
11714.062500	-81.834160
11800.195313	-85.484116
11886.328125	-88.497108
11972.460938	-84.175903
12058.593750	-77.585197
12144.726563	-70.715385
12230.859375	-68.892181
12316.992188	-72.689499
12403.125000	-75.649849
12489.257813	-75.825378
12575.390625	-73.762711
12661.523438	-73.114594
12747.656250	-75.022903
12833.789063	-75.422173
12919.921875	-74.660400
13006.054688	-73.550240
13092.187500	-73.017136
13178.320313	-73.187874
13264.453125	-75.414673
13350.585938	-79.073975
13436.718750	-79.662376
13522.851563	-81.764412
13608.984375	-86.195518
13695.117188	-89.291092
13781.250000	-88.733276
13867.382813	-85.257172
13953.515625	-86.136383
14039.648438	-87.347885
14125.781250	-87.651611
14211.914063	-89.245392
14298.046875	-87.059998
14384.179688	-82.101387
14470.312500	-78.369476
14556.445313	-74.491623
14642.578125	-72.861137
14728.710938	-73.708092
14814.843750	-74.839478
14900.976563	-74.785278
14987.109375	-75.382629
15073.242188	-76.087418
15159.375000	-76.873566
15245.507813	-78.246902
15331.640625	-77.862022
15417.773438	-76.915825
15503.906250	-75.869637
15590.039063	-75.689163
15676.171875	-74.854561
15762.304688	-74.563797
15848.437500	-76.185448
15934.570313	-79.522873
16020.703125	-82.284378
16106.835938	-82.896545
16192.968750	-83.104897
16279.101563	-83.349533
16365.234375	-84.501701
16451.367188	-84.618538
16537.500000	-85.241051
16623.632813	-86.362923
16709.765625	-85.882477
16795.898438	-85.285172
16882.031250	-85.917465
16968.164063	-86.578590
17054.296875	-87.011307
17140.429688	-88.665390
17226.562500	-90.711563
17312.695313	-90.953041
17398.828125	-90.002121
17484.960938	-88.167702
17571.093750	-87.064270
17657.226563	-85.519005
17743.359375	-84.866646
17829.492188	-83.208717
17915.625000	-80.469780
18001.757813	-77.627510
18087.890625	-75.209740
18174.023438	-73.567406
18260.156250	-74.952965
18346.289063	-77.276192
18432.421875	-78.964836
18518.554688	-80.122223
18604.687500	-80.775101
18690.820313	-82.057205
18776.953125	-83.100677
18863.085938	-82.742317
18949.218750	-81.898720
19035.351563	-80.716347
19121.484375	-79.859680
19207.617188	-79.595062
19293.750000	-79.994072
19379.882813	-81.896294
19466.015625	-84.601555
19552.148438	-87.708084
19638.281250	-91.151688
19724.414063	-93.398628
19810.546875	-94.003410
19896.679688	-95.941574
19982.812500	-97.430481
20068.945313	-97.211212
20155.078125	-97.093010
20241.210938	-98.642395
20327.343750	-99.221970
20413.476563	-100.228256
20499.609375	-101.227760
20585.742188	-102.838158
20671.875000	-103.928673
20758.007813	-104.901573
20844.140625	-107.036316
20930.273438	-107.295868
21016.406250	-107.546570
21102.539063	-109.048325
21188.671875	-111.135841
21274.804688	-113.150581
21360.937500	-115.439232
21447.070313	-117.806831
21533.203125	-121.269920
21619.335938	-123.977913
21705.468750	-123.930588
21791.601563	-122.448761
21877.734375	-122.556923
21963.867188	-123.111038
