Frequency (Hz)	Level (dB)
86.132813	-55.125263
172.265625	-57.722775
258.398438	-60.703533
344.531250	-64.082153
430.664063	-65.511543
516.796875	-63.499645
602.929688	-62.972466
689.062500	-63.553455
775.195313	-64.712448
861.328125	-67.444122
947.460938	-67.675293
1033.593750	-65.596924
1119.726563	-65.516228
1205.859375	-62.910049
1291.992188	-60.555656
1378.125000	-60.173313
1464.257813	-62.473751
1550.390625	-65.189568
1636.523438	-64.151726
1722.656250	-63.513256
1808.789063	-61.523998
1894.921875	-61.755596
1981.054688	-69.509392
2067.187500	-66.237144
2153.320313	-60.425400
2239.453125	-57.742260
2325.585938	-57.307453
2411.718750	-57.499565
2497.851563	-56.996563
2583.984375	-56.092072
2670.117188	-54.797207
2756.250000	-54.214417
2842.382813	-56.196392
2928.515625	-58.552807
3014.648438	-61.808880
3100.781250	-68.655174
3186.914063	-75.186928
3273.046875	-73.354836
3359.179688	-70.125008
3445.312500	-66.152855
3531.445313	-61.892185
3617.578125	-57.980835
3703.710938	-56.480919
3789.843750	-58.948002
3875.976563	-64.378044
3962.109375	-62.254814
4048.242188	-62.965191
4134.375000	-61.530594
4220.507813	-61.436779
4306.640625	-59.457657
4392.773438	-58.470856
4478.906250	-60.318417
4565.039063	-61.360386
4651.171875	-60.350658
4737.304688	-57.166443
4823.437500	-55.288769
4909.570313	-55.009956
4995.703125	-51.348438
5081.835938	-47.343056
5167.968750	-43.790531
5254.101563	-44.755924
5340.234375	-51.371517
5426.367188	-55.572247
5512.500000	-57.781754
5598.632813	-64.063065
5684.765625	-71.365898
5770.898438	-66.408989
5857.031250	-64.091484
5943.164063	-63.671829
6029.296875	-62.479633
6115.429688	-62.610718
6201.562500	-65.131973
6287.695313	-63.363098
6373.828125	-62.001492
6459.960938	-64.746994
6546.093750	-71.286240
6632.226563	-71.693901
6718.359375	-71.710495
6804.492188	-71.624550
6890.625000	-68.416679
6976.757813	-70.344093
7062.890625	-74.164787
7149.023438	-70.088463
7235.156250	-68.380646
7321.289063	-69.798920
7407.421875	-76.735321
7493.554688	-71.258095
7579.687500	-69.321686
7665.820313	-73.701218
7751.953125	-64.432899
7838.085938	-58.978516
7924.218750	-58.057991
8010.351563	-60.498592
8096.484375	-64.836296
8182.617188	-71.928436
8268.750000	-84.342644
8354.882813	-75.919472
8441.015625	-72.444778
8527.148438	-74.550087
8613.281250	-80.106552
8699.414063	-73.529167
8785.546875	-68.737923
8871.679688	-67.794411
8957.812500	-70.011749
9043.945313	-77.683975
9130.078125	-72.556274
9216.210938	-69.897858
9302.343750	-70.684654
9388.476563	-67.866425
9474.609375	-67.107178
9560.742188	-67.252068
9646.875000	-67.717102
9733.007813	-68.841553
9819.140625	-69.595932
9905.273438	-72.082039
9991.406250	-80.665443
10077.539063	-73.771042
10163.671875	-66.373650
10249.804688	-65.170303
10335.937500	-67.694016
10422.070313	-67.444435
10508.203125	-64.576324
10594.335938	-59.623978
10680.468750	-56.542503
10766.601563	-58.790703
10852.734375	-68.648071
10938.867188	-71.530930
11025.000000	-70.955452
11111.132813	-73.915543
11197.265625	-78.306564
11283.398438	-83.643661
11369.531250	-82.139038
11455.664063	-77.419914
11541.796875	-74.868668
11627.929688	-72.321701
11714.062500	-69.922012
11800.195313	-68.954521
11886.328125	-69.686020
11972.460938	-70.962837
12058.593750	-71.129265
12144.726563	-71.727730
12230.859375	-75.899788
12316.992188	-85.601959
12403.125000	-75.033516
12489.257813	-72.518166
12575.390625	-74.246521
12661.523438	-76.293228
12747.656250	-79.303566
12833.789063	-81.661949
12919.921875	-82.688377
13006.054688	-79.025932
13092.187500	-75.809723
13178.320313	-74.481033
13264.453125	-73.215584
13350.585938	-73.205887
13436.718750	-75.497765
13522.851563	-79.478264
13608.984375	-87.014076
13695.117188	-85.852425
13781.250000	-83.340462
13867.382813	-79.115105
13953.515625	-75.817993
14039.648438	-75.315414
14125.781250	-77.570320
14211.914063	-84.913246
14298.046875	-88.851334
14384.179688	-80.702721
14470.312500	-79.843361
14556.445313	-85.303246
14642.578125	-88.208939
14728.710938	-86.629051
14814.843750	-90.381180
14900.976563	-80.231476
14987.109375	-74.176758
15073.242188	-72.384056
15159.375000	-74.558571
15245.507813	-80.127388
15331.640625	-84.709587
15417.773438	-84.772545
15503.906250	-80.918274
15590.039063	-79.868973
15676.171875	-79.423859
15762.304688	-76.645882
15848.437500	-76.685951
15934.570313	-82.205147
16020.703125	-94.743286
16106.835938	-99.125946
16192.968750	-89.859932
16279.101563	-83.268860
16365.234375	-81.532951
16451.367188	-85.271492
16537.500000	-88.443741
16623.632813	-82.848404
16709.765625	-81.948936
16795.898438	-80.822166
16882.031250	-78.519722
16968.164063	-77.733597
17054.296875	-78.180389
17140.429688	-80.249107
17226.562500	-84.290497
17312.695313	-87.699707
17398.828125	-87.241257
17484.960938	-83.915871
17571.093750	-83.083832
17657.226563	-83.376434
17743.359375	-83.303658
17829.492188	-83.476761
17915.625000	-81.733742
18001.757813	-78.997566
18087.890625	-77.657829
18174.023438	-78.965431
18260.156250	-81.256210
18346.289063	-82.857056
18432.421875	-84.715744
18518.554688	-86.221504
18604.687500	-87.668213
18690.820313	-90.754623
18776.953125	-93.560760
18863.085938	-88.453278
18949.218750	-83.138405
19035.351563	-81.844162
19121.484375	-84.945190
19207.617188	-88.460800
19293.750000	-87.714325
19379.882813	-91.719734
19466.015625	-93.476212
19552.148438	-93.161003
19638.281250	-95.226189
19724.414063	-96.653313
19810.546875	-94.144653
19896.679688	-92.798347
19982.812500	-93.733841
20068.945313	-94.624626
20155.078125	-93.759598
20241.210938	-93.981689
20327.343750	-98.286186
20413.476563	-103.079262
20499.609375	-109.539246
20585.742188	-109.181061
20671.875000	-102.962273
20758.007813	-100.218056
20844.140625	-101.576057
20930.273438	-104.286873
21016.406250	-105.040184
21102.539063	-105.515862
21188.671875	-107.631126
21274.804688	-110.701569
21360.937500	-114.048683
21447.070313	-118.468903
21533.203125	-125.135315
21619.335938	-129.630661
21705.468750	-126.151474
21791.601563	-129.573792
21877.734375	-132.224564
21963.867188	-124.708260
