Frequency (Hz)	Level (dB)
86.132813	-53.905460
172.265625	-57.058811
258.398438	-58.402977
344.531250	-60.484642
430.664063	-61.315903
516.796875	-61.038189
602.929688	-60.936138
689.062500	-61.435295
775.195313	-62.941277
861.328125	-65.040283
947.460938	-67.602486
1033.593750	-67.291176
1119.726563	-65.774681
1205.859375	-62.204121
1291.992188	-60.448818
1378.125000	-60.453281
1464.257813	-62.570675
1550.390625	-65.747040
1636.523438	-66.124710
1722.656250	-63.756607
1808.789063	-64.464554
1894.921875	-62.998409
1981.054688	-65.958138
2067.187500	-63.639229
2153.320313	-59.715187
2239.453125	-57.848312
2325.585938	-61.392986
2411.718750	-63.558060
2497.851563	-62.723980
2583.984375	-60.499680
2670.117188	-59.210438
2756.250000	-58.942940
2842.382813	-59.993885
2928.515625	-60.335533
3014.648438	-61.719154
3100.781250	-64.916176
3186.914063	-68.631477
3273.046875	-68.022301
3359.179688	-68.995857
3445.312500	-68.229790
3531.445313	-68.769402
3617.578125	-67.749252
3703.710938	-63.071976
3789.843750	-61.580151
3875.976563	-61.642033
3962.109375	-58.616928
4048.242188	-56.996372
4134.375000	-62.068455
4220.507813	-64.192963
4306.640625	-60.009571
4392.773438	-60.415779
4478.906250	-62.807480
4565.039063	-64.794113
4651.171875	-64.620399
4737.304688	-65.024750
4823.437500	-66.374886
4909.570313	-58.843578
4995.703125	-54.862720
5081.835938	-51.403931
5167.968750	-46.248329
5254.101563	-46.657616
5340.234375	-52.693054
5426.367188	-57.593025
5512.500000	-62.574665
5598.632813	-68.521103
5684.765625	-70.218079
5770.898438	-66.266403
5857.031250	-67.081322
5943.164063	-68.121246
6029.296875	-64.762001
6115.429688	-64.731506
6201.562500	-64.487755
6287.695313	-62.598755
6373.828125	-61.254997
6459.960938	-63.420654
6546.093750	-69.492004
6632.226563	-74.371262
6718.359375	-72.864838
6804.492188	-72.633507
6890.625000	-73.353897
6976.757813	-72.215874
7062.890625	-71.282898
7149.023438	-66.806908
7235.156250	-64.392601
7321.289063	-64.403702
7407.421875	-67.622147
7493.554688	-74.019386
7579.687500	-74.736221
7665.820313	-78.746902
7751.953125	-71.685425
7838.085938	-63.732376
7924.218750	-63.281654
8010.351563	-67.093407
8096.484375	-69.485298
8182.617188	-76.944229
8268.750000	-79.190666
8354.882813	-77.878021
8441.015625	-76.134712
8527.148438	-74.229065
8613.281250	-74.550758
8699.414063	-74.853561
8785.546875	-74.886703
8871.679688	-75.755074
8957.812500	-74.623375
9043.945313	-70.994621
9130.078125	-70.527390
9216.210938	-72.240898
9302.343750	-72.694466
9388.476563	-71.164642
9474.609375	-68.104942
9560.742188	-67.824783
9646.875000	-70.374306
9733.007813	-73.642662
9819.140625	-77.831329
9905.273438	-80.975998
9991.406250	-80.299850
10077.539063	-71.423325
10163.671875	-66.911774
10249.804688	-65.677856
10335.937500	-65.660843
10422.070313	-65.318413
10508.203125	-63.467583
10594.335938	-60.968449
10680.468750	-58.702217
10766.601563	-60.328751
10852.734375	-65.385811
10938.867188	-70.463837
11025.000000	-75.844856
11111.132813	-80.383110
11197.265625	-83.272850
11283.398438	-81.975685
11369.531250	-79.918114
11455.664063	-77.836914
11541.796875	-75.435799
11627.929688	-74.487694
11714.062500	-72.723640
11800.195313	-70.594963
11886.328125	-70.648689
11972.460938	-71.928490
12058.593750	-72.451263
12144.726563	-73.102272
12230.859375	-75.414047
12316.992188	-79.970833
12403.125000	-80.612572
12489.257813	-79.580910
12575.390625	-79.631737
12661.523438	-79.136612
12747.656250	-78.724358
12833.789063	-78.341927
12919.921875	-77.795525
13006.054688	-77.864738
13092.187500	-78.454605
13178.320313	-78.918335
13264.453125	-78.511002
13350.585938	-78.651848
13436.718750	-80.434601
13522.851563	-83.254913
13608.984375	-87.155724
13695.117188	-88.367653
13781.250000	-86.388977
13867.382813	-84.455063
13953.515625	-83.554497
14039.648438	-83.887810
14125.781250	-86.979378
14211.914063	-91.207680
14298.046875	-89.270958
14384.179688	-87.139679
14470.312500	-86.451477
14556.445313	-83.877686
14642.578125	-82.593742
14728.710938	-83.517258
14814.843750	-82.092728
14900.976563	-77.642738
14987.109375	-75.960999
15073.242188	-76.205132
15159.375000	-78.628006
15245.507813	-84.152664
15331.640625	-87.454353
15417.773438	-86.766624
15503.906250	-81.843483
15590.039063	-78.867966
15676.171875	-76.984894
15762.304688	-75.335785
15848.437500	-75.428444
15934.570313	-76.741371
16020.703125	-78.014687
16106.835938	-80.781219
16192.968750	-83.677536
16279.101563	-83.112122
16365.234375	-83.238327
16451.367188	-84.955513
16537.500000	-87.574051
16623.632813	-87.075089
16709.765625	-83.897873
16795.898438	-82.143936
16882.031250	-81.275185
16968.164063	-81.004967
17054.296875	-82.263870
17140.429688	-84.015602
17226.562500	-86.554733
17312.695313	-92.434280
17398.828125	-89.737228
17484.960938	-86.558136
17571.093750	-86.518539
17657.226563	-87.303062
17743.359375	-87.077812
17829.492188	-84.810684
17915.625000	-82.354324
18001.757813	-80.749054
18087.890625	-80.292526
18174.023438	-81.208290
18260.156250	-82.585510
18346.289063	-84.314255
18432.421875	-86.429443
18518.554688	-86.480835
18604.687500	-84.640739
18690.820313	-84.834045
18776.953125	-86.614861
18863.085938	-85.560432
18949.218750	-83.531471
19035.351563	-83.672836
19121.484375	-85.810524
19207.617188	-89.493073
19293.750000	-92.174133
19379.882813	-92.380486
19466.015625	-92.095840
19552.148438	-92.178391
19638.281250	-93.215660
19724.414063	-92.853477
19810.546875	-90.764244
19896.679688	-91.143112
19982.812500	-92.575752
20068.945313	-93.143463
20155.078125	-94.789536
20241.210938	-98.355705
20327.343750	-101.928474
20413.476563	-103.297363
20499.609375	-104.919861
20585.742188	-105.398346
20671.875000	-105.749878
20758.007813	-107.671677
20844.140625	-107.745239
20930.273438	-106.981468
21016.406250	-107.970360
21102.539063	-108.836205
21188.671875	-108.445770
21274.804688	-109.457405
21360.937500	-113.467537
21447.070313	-119.976357
21533.203125	-124.636597
21619.335938	-130.070267
21705.468750	-132.345749
21791.601563	-133.360336
21877.734375	-134.901291
21963.867188	-136.696030
