Frequency (Hz)	Level (dB)
86.132813	-49.895725
172.265625	-51.925858
258.398438	-55.828499
344.531250	-58.692440
430.664063	-61.020481
516.796875	-60.474762
602.929688	-60.640072
689.062500	-63.551449
775.195313	-64.822525
861.328125	-65.920479
947.460938	-65.680496
1033.593750	-61.736813
1119.726563	-55.008446
1205.859375	-47.174953
1291.992188	-47.950508
1378.125000	-52.594135
1464.257813	-55.480949
1550.390625	-59.214211
1636.523438	-62.555359
1722.656250	-61.512489
1808.789063	-57.824749
1894.921875	-54.598930
1981.054688	-52.091820
2067.187500	-57.088558
2153.320313	-54.933529
2239.453125	-57.343311
2325.585938	-63.357944
2411.718750	-68.788338
2497.851563	-65.560616
2583.984375	-62.045658
2670.117188	-60.534245
2756.250000	-62.146065
2842.382813	-59.949181
2928.515625	-58.022743
3014.648438	-61.139568
3100.781250	-62.518208
3186.914063	-62.660328
3273.046875	-68.088272
3359.179688	-67.249046
3445.312500	-63.787804
3531.445313	-60.851784
3617.578125	-61.277420
3703.710938	-64.240082
3789.843750	-63.589603
3875.976563	-64.824188
3962.109375	-73.123444
4048.242188	-57.812107
4134.375000	-51.655659
4220.507813	-53.530079
4306.640625	-57.787151
4392.773438	-57.561398
4478.906250	-56.755608
4565.039063	-56.260975
4651.171875	-57.557598
4737.304688	-57.834923
4823.437500	-51.624870
4909.570313	-51.634155
4995.703125	-57.849384
5081.835938	-62.099533
5167.968750	-63.155510
5254.101563	-62.202263
5340.234375	-61.729973
5426.367188	-61.015572
5512.500000	-61.120583
5598.632813	-60.654003
5684.765625	-60.918983
5770.898438	-63.861267
5857.031250	-62.986336
5943.164063	-64.689987
6029.296875	-68.191383
6115.429688	-72.768555
6201.562500	-72.928001
6287.695313	-71.727257
6373.828125	-74.606499
6459.960938	-76.327919
6546.093750	-75.869232
6632.226563	-77.615395
6718.359375	-77.180565
6804.492188	-75.168167
6890.625000	-77.853371
6976.757813	-75.137360
7062.890625	-74.985817
7149.023438	-68.618874
7235.156250	-67.283379
7321.289063	-70.965714
7407.421875	-70.806084
7493.554688	-72.491417
7579.687500	-72.670662
7665.820313	-69.312431
7751.953125	-63.275879
7838.085938	-62.611397
7924.218750	-63.926640
8010.351563	-64.164841
8096.484375	-63.720497
8182.617188	-63.353001
8268.750000	-65.708557
8354.882813	-71.725998
8441.015625	-79.057014
8527.148438	-79.213364
8613.281250	-77.831520
8699.414063	-79.279915
8785.546875	-77.433327
8871.679688	-73.732811
8957.812500	-70.890381
9043.945313	-68.931595
9130.078125	-69.568947
9216.210938	-70.929779
9302.343750	-75.232613
9388.476563	-79.769852
9474.609375	-83.323715
9560.742188	-82.860916
9646.875000	-78.825783
9733.007813	-75.717125
9819.140625	-74.008217
9905.273438	-72.573654
9991.406250	-69.399139
10077.539063	-65.591011
10163.671875	-64.815788
10249.804688	-67.503319
10335.937500	-70.622429
10422.070313	-73.867256
10508.203125	-76.521599
10594.335938	-77.866974
10680.468750	-77.936768
10766.601563	-77.291550
10852.734375	-76.785789
10938.867188	-76.445236
11025.000000	-77.337730
11111.132813	-81.685524
11197.265625	-91.400642
11283.398438	-94.217102
11369.531250	-88.984360
11455.664063	-90.182495
11541.796875	-91.728043
11627.929688	-87.473717
11714.062500	-86.319603
11800.195313	-89.172569
11886.328125	-88.820152
11972.460938	-89.357117
12058.593750	-86.854950
12144.726563	-85.299278
12230.859375	-84.997902
12316.992188	-85.638527
12403.125000	-86.418266
12489.257813	-86.493744
12575.390625	-88.970360
12661.523438	-89.792847
12747.656250	-87.299675
12833.789063	-82.982155
12919.921875	-79.673012
13006.054688	-78.815399
13092.187500	-78.405502
13178.320313	-79.090378
13264.453125	-81.204872
13350.585938	-83.007904
13436.718750	-83.867035
13522.851563	-83.613777
13608.984375	-82.561020
13695.117188	-81.751183
13781.250000	-80.619499
13867.382813	-78.721924
13953.515625	-77.277115
14039.648438	-76.298203
14125.781250	-76.824348
14211.914063	-78.140900
14298.046875	-79.329254
14384.179688	-82.484917
14470.312500	-88.430756
14556.445313	-90.421608
14642.578125	-86.872391
14728.710938	-81.961029
14814.843750	-79.250145
14900.976563	-79.305122
14987.109375	-81.186409
15073.242188	-83.139214
15159.375000	-83.140549
15245.507813	-82.175835
15331.640625	-81.867485
15417.773438	-82.265999
15503.906250	-83.520271
15590.039063	-85.294044
15676.171875	-86.946785
15762.304688	-87.182312
15848.437500	-88.324585
15934.570313	-90.308716
16020.703125	-93.985374
16106.835938	-93.665558
16192.968750	-89.002396
16279.101563	-86.909554
16365.234375	-86.680939
16451.367188	-87.935478
16537.500000	-89.855682
16623.632813	-90.308250
16709.765625	-88.504890
16795.898438	-86.325722
16882.031250	-85.062805
16968.164063	-84.657272
17054.296875	-85.833138
17140.429688	-88.097450
17226.562500	-90.615776
17312.695313	-95.239395
17398.828125	-105.369911
17484.960938	-98.173271
17571.093750	-95.342453
17657.226563	-96.370697
17743.359375	-99.268387
17829.492188	-97.175095
17915.625000	-93.211784
18001.757813	-92.219505
18087.890625	-93.451660
18174.023438	-98.163078
18260.156250	-101.191208
18346.289063	-99.390656
18432.421875	-98.173691
18518.554688	-95.655273
18604.687500	-93.128799
18690.820313	-92.929855
18776.953125	-93.796173
18863.085938	-93.955841
18949.218750	-95.897629
19035.351563	-98.506218
19121.484375	-99.234573
19207.617188	-98.682022
19293.750000	-96.324898
19379.882813	-95.264206
19466.015625	-97.438835
19552.148438	-101.760590
19638.281250	-106.401421
19724.414063	-112.454231
19810.546875	-114.297371
19896.679688	-112.739243
19982.812500	-116.086533
20068.945313	-118.141357
20155.078125	-116.172119
20241.210938	-113.775490
20327.343750	-112.980057
20413.476563	-111.500015
20499.609375	-110.191994
20585.742188	-112.857269
20671.875000	-122.010925
20758.007813	-115.777145
20844.140625	-113.013367
20930.273438	-111.409592
21016.406250	-112.225082
21102.539063	-114.961136
21188.671875	-116.152191
21274.804688	-118.551201
21360.937500	-121.289146
21447.070313	-122.697891
21533.203125	-123.175659
21619.335938	-125.358376
21705.468750	-130.045547
21791.601563	-134.933060
21877.734375	-138.178360
21963.867188	-139.397095
