Frequency (Hz)	Level (dB)
86.132813	-60.818085
172.265625	-60.054028
258.398438	-61.319824
344.531250	-63.941235
430.664063	-66.688370
516.796875	-67.485176
602.929688	-68.348969
689.062500	-69.869919
775.195313	-70.571045
861.328125	-70.443352
947.460938	-70.750778
1033.593750	-68.318237
1119.726563	-60.469872
1205.859375	-54.481861
1291.992188	-55.821056
1378.125000	-58.808662
1464.257813	-61.528969
1550.390625	-64.940422
1636.523438	-69.014282
1722.656250	-70.692619
1808.789063	-67.825592
1894.921875	-66.724472
1981.054688	-67.256462
2067.187500	-63.825874
2153.320313	-60.944431
2239.453125	-64.628532
2325.585938	-69.286911
2411.718750	-77.732567
2497.851563	-82.160378
2583.984375	-73.384392
2670.117188	-70.044899
2756.250000	-71.215836
2842.382813	-65.744209
2928.515625	-62.402851
3014.648438	-64.167580
3100.781250	-66.330368
3186.914063	-67.446526
3273.046875	-72.206131
3359.179688	-64.656319
3445.312500	-60.162075
3531.445313	-56.613361
3617.578125	-55.926968
3703.710938	-59.395287
3789.843750	-62.066956
3875.976563	-61.969097
3962.109375	-61.244705
4048.242188	-54.348518
4134.375000	-49.248428
4220.507813	-51.379955
4306.640625	-55.820580
4392.773438	-57.159065
4478.906250	-55.849770
4565.039063	-55.237209
4651.171875	-57.881985
4737.304688	-61.383801
4823.437500	-53.252071
4909.570313	-53.445930
4995.703125	-61.289639
5081.835938	-74.428711
5167.968750	-72.504776
5254.101563	-67.398895
5340.234375	-65.059532
5426.367188	-62.526554
5512.500000	-59.245674
5598.632813	-56.329571
5684.765625	-57.755749
5770.898438	-62.803181
5857.031250	-66.382881
5943.164063	-71.885002
6029.296875	-79.745796
6115.429688	-84.888741
6201.562500	-81.143532
6287.695313	-78.438812
6373.828125	-77.688782
6459.960938	-78.092407
6546.093750	-75.502419
6632.226563	-73.784157
6718.359375	-74.351601
6804.492188	-74.609421
6890.625000	-76.445251
6976.757813	-78.973770
7062.890625	-82.565964
7149.023438	-83.764648
7235.156250	-85.367043
7321.289063	-88.465309
7407.421875	-88.624985
7493.554688	-82.129288
7579.687500	-78.751686
7665.820313	-79.695549
7751.953125	-82.389343
7838.085938	-83.923805
7924.218750	-84.287743
8010.351563	-83.558052
8096.484375	-81.218857
8182.617188	-80.617378
8268.750000	-85.866821
8354.882813	-92.410019
8441.015625	-89.962349
8527.148438	-89.248146
8613.281250	-90.661186
8699.414063	-93.972710
8785.546875	-99.784538
8871.679688	-98.112061
8957.812500	-98.303513
9043.945313	-96.030396
9130.078125	-89.517853
9216.210938	-84.396469
9302.343750	-81.387634
9388.476563	-79.987846
9474.609375	-80.966476
9560.742188	-84.934395
9646.875000	-82.931351
9733.007813	-77.851448
9819.140625	-77.362480
9905.273438	-79.503601
9991.406250	-75.406487
10077.539063	-70.517593
10163.671875	-69.576408
10249.804688	-72.072800
10335.937500	-76.005302
10422.070313	-79.391380
10508.203125	-81.584572
10594.335938	-84.305542
10680.468750	-87.099930
10766.601563	-87.636772
10852.734375	-85.078743
10938.867188	-82.005486
11025.000000	-80.715828
11111.132813	-81.651382
11197.265625	-84.130295
11283.398438	-87.816559
11369.531250	-88.978737
11455.664063	-88.420380
11541.796875	-91.559502
11627.929688	-98.694267
11714.062500	-98.196724
11800.195313	-93.374039
11886.328125	-89.805527
11972.460938	-88.457405
12058.593750	-89.131897
12144.726563	-91.307510
12230.859375	-92.133263
12316.992188	-90.425262
12403.125000	-88.795944
12489.257813	-87.853539
12575.390625	-88.356964
12661.523438	-90.749001
12747.656250	-95.014915
12833.789063	-99.901787
12919.921875	-98.701981
13006.054688	-96.116280
13092.187500	-95.180626
13178.320313	-96.570686
13264.453125	-99.826508
13350.585938	-103.372948
13436.718750	-106.412498
13522.851563	-106.234253
13608.984375	-103.354668
13695.117188	-100.407021
13781.250000	-99.164627
13867.382813	-98.446915
13953.515625	-98.453217
14039.648438	-98.463463
14125.781250	-98.429718
14211.914063	-99.613388
14298.046875	-102.689781
14384.179688	-104.099770
14470.312500	-103.802216
14556.445313	-100.338989
14642.578125	-94.635315
14728.710938	-91.686981
14814.843750	-91.603104
14900.976563	-93.154686
14987.109375	-94.659241
15073.242188	-96.974174
15159.375000	-100.696754
15245.507813	-103.354012
15331.640625	-103.389214
15417.773438	-100.523415
15503.906250	-99.662422
15590.039063	-99.726967
15676.171875	-99.292778
15762.304688	-98.656738
15848.437500	-98.533447
15934.570313	-98.374504
16020.703125	-98.815186
16106.835938	-99.919952
16192.968750	-101.646988
16279.101563	-104.103340
16365.234375	-107.011703
16451.367188	-110.777283
16537.500000	-113.964279
16623.632813	-115.543015
16709.765625	-117.508827
16795.898438	-119.259842
16882.031250	-119.745110
16968.164063	-121.776527
17054.296875	-122.767059
17140.429688	-122.047310
17226.562500	-120.783051
17312.695313	-120.941933
17398.828125	-121.493065
17484.960938	-121.124947
17571.093750	-120.937447
17657.226563	-120.088692
17743.359375	-117.424400
17829.492188	-114.871826
17915.625000	-113.824043
18001.757813	-113.680840
18087.890625	-112.856010
18174.023438	-111.827583
18260.156250	-111.219406
18346.289063	-110.565842
18432.421875	-110.085693
18518.554688	-110.153191
18604.687500	-111.103745
18690.820313	-113.849762
18776.953125	-119.690491
18863.085938	-124.069427
18949.218750	-118.179382
19035.351563	-115.747734
19121.484375	-115.053421
19207.617188	-114.838287
19293.750000	-115.604111
19379.882813	-117.351639
19466.015625	-119.767998
19552.148438	-122.907906
19638.281250	-127.276627
19724.414063	-129.939865
19810.546875	-131.374695
19896.679688	-131.894913
19982.812500	-131.609604
20068.945313	-132.370377
20155.078125	-134.416992
20241.210938	-135.889404
20327.343750	-133.894333
20413.476563	-134.544144
20499.609375	-133.799637
20585.742188	-134.288315
20671.875000	-135.356064
20758.007813	-135.553391
20844.140625	-135.870728
20930.273438	-138.143677
21016.406250	-140.499817
21102.539063	-141.200500
21188.671875	-142.587173
21274.804688	-144.713943
21360.937500	-147.230545
21447.070313	-150.480698
21533.203125	-150.098633
21619.335938	-149.385315
21705.468750	-151.340271
21791.601563	-153.526276
21877.734375	-155.405777
21963.867188	-157.725449
