Frequency (Hz)	Level (dB)
86.132813	-50.161236
172.265625	-51.597446
258.398438	-55.166931
344.531250	-58.237431
430.664063	-59.746685
516.796875	-59.101505
602.929688	-59.060223
689.062500	-59.808228
775.195313	-60.967533
861.328125	-62.425777
947.460938	-63.946869
1033.593750	-63.928493
1119.726563	-60.813625
1205.859375	-56.127655
1291.992188	-55.803970
1378.125000	-56.942177
1464.257813	-58.527298
1550.390625	-60.623405
1636.523438	-63.898380
1722.656250	-69.510574
1808.789063	-68.965027
1894.921875	-68.961464
1981.054688	-73.798630
2067.187500	-68.074577
2153.320313	-58.527027
2239.453125	-58.054863
2325.585938	-61.137028
2411.718750	-67.157799
2497.851563	-73.136497
2583.984375	-65.798859
2670.117188	-62.345329
2756.250000	-62.181164
2842.382813	-62.038731
2928.515625	-60.895443
3014.648438	-63.220089
3100.781250	-68.531609
3186.914063	-71.708855
3273.046875	-66.784607
3359.179688	-63.040070
3445.312500	-62.853798
3531.445313	-63.375153
3617.578125	-61.936913
3703.710938	-61.308498
3789.843750	-61.257847
3875.976563	-61.275341
3962.109375	-63.296658
4048.242188	-58.780766
4134.375000	-51.766327
4220.507813	-52.268265
4306.640625	-56.640053
4392.773438	-62.989193
4478.906250	-65.444710
4565.039063	-60.327141
4651.171875	-56.383930
4737.304688	-51.257793
4823.437500	-46.378666
4909.570313	-46.714176
4995.703125	-52.678020
5081.835938	-59.046070
5167.968750	-62.155167
5254.101563	-63.926968
5340.234375	-63.745655
5426.367188	-62.885532
5512.500000	-63.555229
5598.632813	-64.922302
5684.765625	-66.276283
5770.898438	-67.181488
5857.031250	-65.669357
5943.164063	-67.523628
6029.296875	-73.263756
6115.429688	-72.263832
6201.562500	-68.177666
6287.695313	-68.105698
6373.828125	-70.939774
6459.960938	-73.764145
6546.093750	-74.779572
6632.226563	-76.200867
6718.359375	-80.088036
6804.492188	-79.793182
6890.625000	-79.457550
6976.757813	-73.620476
7062.890625	-70.549866
7149.023438	-69.241020
7235.156250	-70.103302
7321.289063	-73.155113
7407.421875	-74.466965
7493.554688	-71.569305
7579.687500	-69.440506
7665.820313	-69.948029
7751.953125	-72.574371
7838.085938	-75.012413
7924.218750	-77.024780
8010.351563	-79.273483
8096.484375	-78.199677
8182.617188	-76.715363
8268.750000	-77.521515
8354.882813	-78.401527
8441.015625	-78.408913
8527.148438	-79.282326
8613.281250	-80.719856
8699.414063	-82.235588
8785.546875	-83.678993
8871.679688	-85.271004
8957.812500	-86.854591
9043.945313	-88.533623
9130.078125	-84.052017
9216.210938	-82.653870
9302.343750	-85.482941
9388.476563	-88.340965
9474.609375	-85.929817
9560.742188	-85.393494
9646.875000	-89.931129
9733.007813	-87.127594
9819.140625	-79.824242
9905.273438	-75.934662
9991.406250	-71.612572
10077.539063	-67.994423
10163.671875	-67.581970
10249.804688	-70.715797
10335.937500	-75.375801
10422.070313	-77.797356
10508.203125	-78.324364
10594.335938	-78.479179
10680.468750	-80.097839
10766.601563	-82.465324
10852.734375	-83.855423
10938.867188	-83.617119
11025.000000	-84.699051
11111.132813	-90.121880
11197.265625	-97.053627
11283.398438	-95.033051
11369.531250	-93.861137
11455.664063	-92.856972
11541.796875	-92.447601
11627.929688	-92.602631
11714.062500	-93.002815
11800.195313	-91.200874
11886.328125	-89.686203
11972.460938	-89.703499
12058.593750	-91.482872
12144.726563	-95.973930
12230.859375	-98.474815
12316.992188	-95.345695
12403.125000	-95.054642
12489.257813	-101.816986
12575.390625	-101.703659
12661.523438	-96.962265
12747.656250	-95.381538
12833.789063	-96.349472
12919.921875	-100.451614
13006.054688	-105.900002
13092.187500	-104.267975
13178.320313	-97.307251
13264.453125	-94.267921
13350.585938	-92.608376
13436.718750	-92.106544
13522.851563	-93.315865
13608.984375	-94.957245
13695.117188	-93.899666
13781.250000	-93.708916
13867.382813	-96.555855
13953.515625	-97.367706
14039.648438	-94.792511
14125.781250	-95.032021
14211.914063	-96.209061
14298.046875	-96.774048
14384.179688	-96.631569
14470.312500	-97.819702
14556.445313	-99.153473
14642.578125	-99.099030
14728.710938	-99.931473
14814.843750	-99.343475
14900.976563	-97.311714
14987.109375	-93.666138
15073.242188	-91.556221
15159.375000	-93.641716
15245.507813	-100.064781
15331.640625	-97.142349
15417.773438	-95.098808
15503.906250	-95.308151
15590.039063	-95.615013
15676.171875	-95.034630
15762.304688	-94.144775
15848.437500	-93.615616
15934.570313	-94.176659
16020.703125	-95.668633
16106.835938	-98.196785
16192.968750	-101.965019
16279.101563	-103.334053
16365.234375	-102.354935
16451.367188	-103.988113
16537.500000	-107.113617
16623.632813	-106.676079
16709.765625	-107.789238
16795.898438	-105.858459
16882.031250	-101.148277
16968.164063	-102.433380
17054.296875	-105.960701
17140.429688	-98.994118
17226.562500	-97.994194
17312.695313	-103.465111
17398.828125	-101.763794
17484.960938	-98.564903
17571.093750	-99.165550
17657.226563	-101.968056
17743.359375	-104.571426
17829.492188	-104.015785
17915.625000	-103.644859
18001.757813	-102.433197
18087.890625	-102.281670
18174.023438	-101.915604
18260.156250	-102.558426
18346.289063	-103.730812
18432.421875	-101.455658
18518.554688	-99.849167
18604.687500	-101.630066
18690.820313	-105.376625
18776.953125	-107.905449
18863.085938	-107.093773
18949.218750	-106.885010
19035.351563	-106.124969
19121.484375	-106.708168
19207.617188	-107.503654
19293.750000	-105.288208
19379.882813	-104.614555
19466.015625	-104.620590
19552.148438	-105.877991
19638.281250	-109.162369
19724.414063	-105.043137
19810.546875	-103.884506
19896.679688	-108.450821
19982.812500	-118.652367
20068.945313	-115.737907
20155.078125	-114.230034
20241.210938	-117.843979
20327.343750	-124.705887
20413.476563	-118.050774
20499.609375	-117.943268
20585.742188	-123.225037
20671.875000	-119.023651
20758.007813	-115.185532
20844.140625	-117.372955
20930.273438	-122.780205
21016.406250	-121.915306
21102.539063	-123.512772
21188.671875	-129.416672
21274.804688	-135.469025
21360.937500	-135.351837
21447.070313	-134.874481
21533.203125	-133.994568
21619.335938	-131.851776
21705.468750	-133.373520
21791.601563	-140.164139
21877.734375	-147.526245
21963.867188	-143.387543
