Frequency (Hz)	Level (dB)
86.132813	-47.559795
172.265625	-50.422001
258.398438	-52.455105
344.531250	-55.164616
430.664063	-55.764153
516.796875	-56.111324
602.929688	-56.890987
689.062500	-57.837181
775.195313	-58.837009
861.328125	-59.739685
947.460938	-60.698563
1033.593750	-55.300289
1119.726563	-48.117519
1205.859375	-50.726727
1291.992188	-53.238586
1378.125000	-54.605385
1464.257813	-57.240082
1550.390625	-60.293144
1636.523438	-63.474735
1722.656250	-62.487110
1808.789063	-59.870369
1894.921875	-52.754677
1981.054688	-50.497005
2067.187500	-50.786587
2153.320313	-48.477383
2239.453125	-50.957382
2325.585938	-54.669834
2411.718750	-58.723381
2497.851563	-60.614826
2583.984375	-59.438988
2670.117188	-57.766445
2756.250000	-56.542263
2842.382813	-54.528755
2928.515625	-55.831364
3014.648438	-66.197266
3100.781250	-66.729050
3186.914063	-59.809822
3273.046875	-58.550201
3359.179688	-56.592285
3445.312500	-56.197857
3531.445313	-56.435596
3617.578125	-55.630550
3703.710938	-52.592590
3789.843750	-47.868305
3875.976563	-47.943081
3962.109375	-55.745895
4048.242188	-58.417168
4134.375000	-56.355930
4220.507813	-59.172375
4306.640625	-61.134167
4392.773438	-62.554714
4478.906250	-66.534706
4565.039063	-65.561790
4651.171875	-62.554817
4737.304688	-57.780556
4823.437500	-51.840279
4909.570313	-52.249001
4995.703125	-59.696266
5081.835938	-66.303833
5167.968750	-67.271690
5254.101563	-66.983330
5340.234375	-67.382896
5426.367188	-65.435211
5512.500000	-59.191109
5598.632813	-56.103226
5684.765625	-59.223450
5770.898438	-64.880760
5857.031250	-66.927940
5943.164063	-70.348778
6029.296875	-72.784378
6115.429688	-74.755943
6201.562500	-66.983955
6287.695313	-65.343437
6373.828125	-68.609070
6459.960938	-71.357300
6546.093750	-72.192139
6632.226563	-69.863251
6718.359375	-68.165718
6804.492188	-68.219666
6890.625000	-69.330414
6976.757813	-71.326241
7062.890625	-68.085472
7149.023438	-63.586098
7235.156250	-60.985138
7321.289063	-60.460873
7407.421875	-61.625450
7493.554688	-63.188534
7579.687500	-65.078957
7665.820313	-67.770874
7751.953125	-70.257065
7838.085938	-73.419792
7924.218750	-70.664513
8010.351563	-65.035835
8096.484375	-61.234341
8182.617188	-59.922512
8268.750000	-60.851307
8354.882813	-62.528362
8441.015625	-64.031532
8527.148438	-66.434975
8613.281250	-68.947159
8699.414063	-71.113800
8785.546875	-73.457184
8871.679688	-75.450081
8957.812500	-77.886086
9043.945313	-81.124741
9130.078125	-84.818848
9216.210938	-87.690208
9302.343750	-86.505302
9388.476563	-86.711212
9474.609375	-87.520927
9560.742188	-87.045227
9646.875000	-85.703568
9733.007813	-84.914833
9819.140625	-85.971573
9905.273438	-89.925331
9991.406250	-92.636421
10077.539063	-81.940025
10163.671875	-78.136314
10249.804688	-78.541214
10335.937500	-81.236420
10422.070313	-86.010307
10508.203125	-86.376991
10594.335938	-83.482224
10680.468750	-83.357826
10766.601563	-84.221092
10852.734375	-83.452385
10938.867188	-81.533821
11025.000000	-80.835983
11111.132813	-82.760544
11197.265625	-86.658569
11283.398438	-90.912537
11369.531250	-94.623474
11455.664063	-97.000793
11541.796875	-93.897301
11627.929688	-92.751404
11714.062500	-92.239960
11800.195313	-89.814133
11886.328125	-85.540344
11972.460938	-82.164886
12058.593750	-81.765984
12144.726563	-82.525497
12230.859375	-83.335480
12316.992188	-83.820107
12403.125000	-85.903336
12489.257813	-87.179817
12575.390625	-89.163879
12661.523438	-91.140366
12747.656250	-91.546341
12833.789063	-90.751305
12919.921875	-87.719978
13006.054688	-84.870575
13092.187500	-82.818878
13178.320313	-82.392555
13264.453125	-83.729568
13350.585938	-85.800667
13436.718750	-87.637474
13522.851563	-88.786285
13608.984375	-90.076950
13695.117188	-93.642754
13781.250000	-101.828690
13867.382813	-98.124580
13953.515625	-96.534691
14039.648438	-97.100708
14125.781250	-96.283798
14211.914063	-94.958481
14298.046875	-92.527046
14384.179688	-90.759583
14470.312500	-89.154327
14556.445313	-86.753075
14642.578125	-85.367645
14728.710938	-83.813805
14814.843750	-83.057121
14900.976563	-83.382690
14987.109375	-85.255157
15073.242188	-86.975067
15159.375000	-88.343643
15245.507813	-90.962891
15331.640625	-95.325653
15417.773438	-92.323479
15503.906250	-89.501961
15590.039063	-89.537483
15676.171875	-90.491066
15762.304688	-90.733925
15848.437500	-89.939682
15934.570313	-89.349953
16020.703125	-89.990456
16106.835938	-91.715401
16192.968750	-93.819740
16279.101563	-94.520454
16365.234375	-94.781082
16451.367188	-96.393791
16537.500000	-99.901581
16623.632813	-104.059280
16709.765625	-105.497124
16795.898438	-106.128548
16882.031250	-107.076805
16968.164063	-106.789925
17054.296875	-104.202751
17140.429688	-103.181030
17226.562500	-102.897209
17312.695313	-101.582062
17398.828125	-100.450172
17484.960938	-98.701134
17571.093750	-96.146858
17657.226563	-97.922592
17743.359375	-107.106789
17829.492188	-111.000916
17915.625000	-106.341530
18001.757813	-106.166504
18087.890625	-105.651131
18174.023438	-107.177589
18260.156250	-107.358047
18346.289063	-108.088997
18432.421875	-110.513191
18518.554688	-112.152039
18604.687500	-114.542488
18690.820313	-116.608429
18776.953125	-113.668442
18863.085938	-108.953499
18949.218750	-107.500694
19035.351563	-109.047928
19121.484375	-110.720642
19207.617188	-111.736107
19293.750000	-111.372383
19379.882813	-109.960350
19466.015625	-106.954140
19552.148438	-107.367432
19638.281250	-112.853836
19724.414063	-116.506859
19810.546875	-116.188400
19896.679688	-115.270264
19982.812500	-115.690811
20068.945313	-114.697235
20155.078125	-113.249115
20241.210938	-113.254822
20327.343750	-111.958023
20413.476563	-112.315491
20499.609375	-114.569572
20585.742188	-115.123764
20671.875000	-114.577553
20758.007813	-114.833778
20844.140625	-115.989250
20930.273438	-117.083458
21016.406250	-119.337578
21102.539063	-120.077866
21188.671875	-121.593529
21274.804688	-124.791939
21360.937500	-127.033882
21447.070313	-129.490143
21533.203125	-134.208664
21619.335938	-135.726868
21705.468750	-137.605789
21791.601563	-141.781952
21877.734375	-145.905914
21963.867188	-148.722946
