Frequency (Hz)	Level (dB)
86.132813	-48.944412
172.265625	-52.319878
258.398438	-55.595917
344.531250	-59.763504
430.664063	-60.688244
516.796875	-59.328594
602.929688	-59.482182
689.062500	-60.622524
775.195313	-61.341282
861.328125	-62.260895
947.460938	-63.663929
1033.593750	-59.462536
1119.726563	-53.957924
1205.859375	-51.987759
1291.992188	-54.602722
1378.125000	-56.778542
1464.257813	-57.855171
1550.390625	-59.443798
1636.523438	-60.733829
1722.656250	-64.229240
1808.789063	-68.579269
1894.921875	-68.550362
1981.054688	-67.944504
2067.187500	-60.998547
2153.320313	-53.790367
2239.453125	-53.815960
2325.585938	-58.669411
2411.718750	-63.879963
2497.851563	-67.263245
2583.984375	-64.593300
2670.117188	-62.081875
2756.250000	-63.746330
2842.382813	-62.951221
2928.515625	-57.998798
3014.648438	-61.449337
3100.781250	-65.842163
3186.914063	-62.372753
3273.046875	-61.739521
3359.179688	-61.726475
3445.312500	-62.969376
3531.445313	-64.198425
3617.578125	-61.811314
3703.710938	-61.941296
3789.843750	-66.280502
3875.976563	-61.573689
3962.109375	-59.433353
4048.242188	-53.280968
4134.375000	-47.810612
4220.507813	-48.952541
4306.640625	-55.855614
4392.773438	-65.572098
4478.906250	-63.290276
4565.039063	-59.501179
4651.171875	-55.859470
4737.304688	-51.441727
4823.437500	-44.200245
4909.570313	-44.597462
4995.703125	-52.907879
5081.835938	-59.871140
5167.968750	-62.779510
5254.101563	-64.485962
5340.234375	-65.095856
5426.367188	-60.511402
5512.500000	-59.382713
5598.632813	-65.212921
5684.765625	-69.135971
5770.898438	-68.318275
5857.031250	-64.922829
5943.164063	-64.694817
6029.296875	-66.681931
6115.429688	-65.978386
6201.562500	-65.496956
6287.695313	-67.104805
6373.828125	-72.775665
6459.960938	-76.445427
6546.093750	-73.213661
6632.226563	-72.799889
6718.359375	-77.864807
6804.492188	-83.432220
6890.625000	-78.971909
6976.757813	-70.580444
7062.890625	-66.393204
7149.023438	-64.876678
7235.156250	-65.648163
7321.289063	-68.677956
7407.421875	-70.918747
7493.554688	-68.303070
7579.687500	-66.498955
7665.820313	-65.055649
7751.953125	-67.230766
7838.085938	-75.053474
7924.218750	-76.659889
8010.351563	-84.583809
8096.484375	-76.052773
8182.617188	-75.534607
8268.750000	-79.826530
8354.882813	-78.599411
8441.015625	-78.244904
8527.148438	-78.406746
8613.281250	-80.489670
8699.414063	-86.648163
8785.546875	-86.509987
8871.679688	-87.299133
8957.812500	-90.697060
9043.945313	-87.495956
9130.078125	-83.565987
9216.210938	-84.533516
9302.343750	-93.288506
9388.476563	-84.428413
9474.609375	-82.322067
9560.742188	-89.618561
9646.875000	-85.599625
9733.007813	-85.873802
9819.140625	-80.516403
9905.273438	-76.549706
9991.406250	-71.765816
10077.539063	-66.879631
10163.671875	-66.640732
10249.804688	-71.347443
10335.937500	-76.831833
10422.070313	-79.465797
10508.203125	-79.547165
10594.335938	-78.871857
10680.468750	-82.600380
10766.601563	-88.353836
10852.734375	-85.577110
10938.867188	-86.169891
11025.000000	-88.417320
11111.132813	-94.256966
11197.265625	-96.344109
11283.398438	-91.886284
11369.531250	-91.777992
11455.664063	-93.784836
11541.796875	-90.264847
11627.929688	-91.802277
11714.062500	-95.859901
11800.195313	-91.460960
11886.328125	-89.961754
11972.460938	-91.356415
12058.593750	-94.674820
12144.726563	-99.435631
12230.859375	-99.553017
12316.992188	-94.480690
12403.125000	-91.973167
12489.257813	-93.241058
12575.390625	-98.981148
12661.523438	-92.601402
12747.656250	-91.169014
12833.789063	-95.940681
12919.921875	-96.011345
13006.054688	-92.726883
13092.187500	-93.332382
13178.320313	-94.161385
13264.453125	-97.046623
13350.585938	-96.783539
13436.718750	-92.943832
13522.851563	-90.748184
13608.984375	-90.106979
13695.117188	-93.071442
13781.250000	-92.414703
13867.382813	-88.139793
13953.515625	-88.696686
14039.648438	-93.382423
14125.781250	-95.950806
14211.914063	-94.906357
14298.046875	-97.267799
14384.179688	-100.053246
14470.312500	-101.163780
14556.445313	-103.635567
14642.578125	-99.542900
14728.710938	-94.425941
14814.843750	-92.480125
14900.976563	-94.789627
14987.109375	-102.505959
15073.242188	-101.213722
15159.375000	-98.950706
15245.507813	-100.733681
15331.640625	-101.111298
15417.773438	-93.038185
15503.906250	-93.145851
15590.039063	-97.444229
15676.171875	-96.241638
15762.304688	-92.296570
15848.437500	-90.912315
15934.570313	-91.380630
16020.703125	-92.875198
16106.835938	-96.071640
16192.968750	-98.175873
16279.101563	-93.271118
16365.234375	-92.716667
16451.367188	-96.938652
16537.500000	-103.883789
16623.632813	-105.484497
16709.765625	-99.504440
16795.898438	-101.126602
16882.031250	-99.089859
16968.164063	-97.407616
17054.296875	-103.052505
17140.429688	-105.148705
17226.562500	-104.835258
17312.695313	-104.354393
17398.828125	-99.244843
17484.960938	-98.023491
17571.093750	-100.546410
17657.226563	-106.695877
17743.359375	-107.953026
17829.492188	-104.692757
17915.625000	-102.798172
18001.757813	-102.011009
18087.890625	-101.666367
18174.023438	-101.103706
18260.156250	-101.445755
18346.289063	-98.790604
18432.421875	-97.547089
18518.554688	-102.236931
18604.687500	-108.360580
18690.820313	-108.575371
18776.953125	-107.314064
18863.085938	-104.548386
18949.218750	-107.617119
19035.351563	-105.755959
19121.484375	-109.792122
19207.617188	-105.488686
19293.750000	-103.050308
19379.882813	-103.457779
19466.015625	-105.940567
19552.148438	-111.453041
19638.281250	-103.323822
19724.414063	-101.422813
19810.546875	-106.003090
19896.679688	-112.080376
19982.812500	-109.244293
20068.945313	-107.984497
20155.078125	-112.043976
20241.210938	-112.999046
20327.343750	-111.270508
20413.476563	-116.255730
20499.609375	-112.066238
20585.742188	-113.639816
20671.875000	-121.095490
20758.007813	-124.318855
20844.140625	-124.462265
20930.273438	-124.481026
21016.406250	-125.168983
21102.539063	-128.555237
21188.671875	-132.992783
21274.804688	-130.620636
21360.937500	-131.771042
21447.070313	-131.649628
21533.203125	-130.119431
21619.335938	-131.580154
21705.468750	-135.721161
21791.601563	-143.425125
21877.734375	-145.494064
21963.867188	-143.392670
