Frequency (Hz)	Level (dB)
86.132813	-48.474590
172.265625	-50.555367
258.398438	-53.799805
344.531250	-57.334740
430.664063	-58.568535
516.796875	-57.512932
602.929688	-57.514927
689.062500	-58.372177
775.195313	-59.313171
861.328125	-60.579700
947.460938	-62.027363
1033.593750	-59.880669
1119.726563	-55.661018
1205.859375	-52.944763
1291.992188	-53.644901
1378.125000	-55.266060
1464.257813	-56.554501
1550.390625	-58.516834
1636.523438	-61.028175
1722.656250	-66.068588
1808.789063	-68.990799
1894.921875	-69.503838
1981.054688	-73.978180
2067.187500	-63.625977
2153.320313	-54.680664
2239.453125	-54.328331
2325.585938	-57.814240
2411.718750	-63.753548
2497.851563	-69.796326
2583.984375	-63.668571
2670.117188	-60.318264
2756.250000	-60.971199
2842.382813	-59.678516
2928.515625	-57.244884
3014.648438	-60.371456
3100.781250	-63.131832
3186.914063	-62.005917
3273.046875	-61.149178
3359.179688	-59.433899
3445.312500	-60.150627
3531.445313	-61.159489
3617.578125	-59.602715
3703.710938	-59.856937
3789.843750	-59.909046
3875.976563	-58.591129
3962.109375	-59.315948
4048.242188	-54.649918
4134.375000	-48.242676
4220.507813	-49.103161
4306.640625	-55.156086
4392.773438	-65.798843
4478.906250	-61.551361
4565.039063	-56.396862
4651.171875	-53.239403
4737.304688	-47.883568
4823.437500	-42.046883
4909.570313	-42.259090
4995.703125	-48.835659
5081.835938	-56.264412
5167.968750	-58.037209
5254.101563	-59.267185
5340.234375	-59.577217
5426.367188	-56.355175
5512.500000	-56.085442
5598.632813	-60.161476
5684.765625	-62.948032
5770.898438	-63.598900
5857.031250	-63.717098
5943.164063	-66.431183
6029.296875	-70.717415
6115.429688	-66.115891
6201.562500	-64.343071
6287.695313	-65.914665
6373.828125	-71.486488
6459.960938	-73.247017
6546.093750	-70.462547
6632.226563	-70.891083
6718.359375	-75.439636
6804.492188	-80.234810
6890.625000	-81.014847
6976.757813	-74.409264
7062.890625	-71.198097
7149.023438	-70.238182
7235.156250	-71.003113
7321.289063	-72.826370
7407.421875	-72.610825
7493.554688	-69.527901
7579.687500	-67.225060
7665.820313	-66.598785
7751.953125	-67.010101
7838.085938	-70.477921
7924.218750	-73.757446
8010.351563	-76.275146
8096.484375	-72.438423
8182.617188	-70.628189
8268.750000	-72.612427
8354.882813	-73.380020
8441.015625	-73.696106
8527.148438	-75.697006
8613.281250	-79.055450
8699.414063	-83.699844
8785.546875	-88.338074
8871.679688	-93.567017
8957.812500	-96.002235
9043.945313	-89.637474
9130.078125	-84.714882
9216.210938	-83.882690
9302.343750	-87.830193
9388.476563	-80.792854
9474.609375	-77.684555
9560.742188	-77.508453
9646.875000	-78.263741
9733.007813	-80.304909
9819.140625	-73.824722
9905.273438	-69.286224
9991.406250	-64.579414
10077.539063	-60.751339
10163.671875	-60.461182
10249.804688	-63.831776
10335.937500	-68.341011
10422.070313	-71.072983
10508.203125	-72.582695
10594.335938	-73.062263
10680.468750	-75.101784
10766.601563	-76.353485
10852.734375	-76.349869
10938.867188	-78.502205
11025.000000	-82.514626
11111.132813	-91.765694
11197.265625	-91.063339
11283.398438	-85.830299
11369.531250	-85.318298
11455.664063	-89.312325
11541.796875	-91.789574
11627.929688	-94.933105
11714.062500	-97.857361
11800.195313	-89.147079
11886.328125	-84.746140
11972.460938	-83.949760
12058.593750	-84.986740
12144.726563	-86.735344
12230.859375	-90.231422
12316.992188	-99.042267
12403.125000	-97.127434
12489.257813	-91.050644
12575.390625	-88.985146
12661.523438	-90.508392
12747.656250	-94.212708
12833.789063	-96.848022
12919.921875	-104.915741
13006.054688	-92.188553
13092.187500	-86.394882
13178.320313	-84.260811
13264.453125	-85.327919
13350.585938	-88.391571
13436.718750	-90.170990
13522.851563	-87.890312
13608.984375	-84.683029
13695.117188	-84.073715
13781.250000	-83.814178
13867.382813	-82.543457
13953.515625	-82.491158
14039.648438	-83.572388
14125.781250	-86.585716
14211.914063	-89.563576
14298.046875	-92.930130
14384.179688	-99.609062
14470.312500	-92.753654
14556.445313	-90.604691
14642.578125	-90.903549
14728.710938	-90.242790
14814.843750	-86.231972
14900.976563	-85.724625
14987.109375	-90.048386
15073.242188	-90.124603
15159.375000	-88.178810
15245.507813	-90.414307
15331.640625	-98.337173
15417.773438	-94.324593
15503.906250	-92.051521
15590.039063	-92.559326
15676.171875	-89.489662
15762.304688	-87.401245
15848.437500	-85.236763
15934.570313	-82.992905
16020.703125	-82.179222
16106.835938	-82.968460
16192.968750	-84.693909
16279.101563	-86.365662
16365.234375	-87.155693
16451.367188	-88.266510
16537.500000	-91.168236
16623.632813	-97.610847
16709.765625	-102.669220
16795.898438	-104.832077
16882.031250	-96.495399
16968.164063	-92.105476
17054.296875	-91.723106
17140.429688	-91.846985
17226.562500	-92.326744
17312.695313	-92.996422
17398.828125	-92.439934
17484.960938	-95.118484
17571.093750	-104.705841
17657.226563	-101.798134
17743.359375	-95.858765
17829.492188	-96.235336
17915.625000	-100.400719
18001.757813	-99.277611
18087.890625	-93.799194
18174.023438	-92.309425
18260.156250	-92.663124
18346.289063	-91.946068
18432.421875	-92.115265
18518.554688	-93.232933
18604.687500	-98.421761
18690.820313	-99.086540
18776.953125	-93.408440
18863.085938	-93.877045
18949.218750	-93.713264
19035.351563	-93.641739
19121.484375	-96.915977
19207.617188	-99.789291
19293.750000	-100.960548
19379.882813	-99.892319
19466.015625	-100.201935
19552.148438	-104.658974
19638.281250	-103.905396
19724.414063	-102.240265
19810.546875	-102.972847
19896.679688	-103.665192
19982.812500	-104.961998
20068.945313	-109.921181
20155.078125	-109.756996
20241.210938	-106.255341
20327.343750	-105.808884
20413.476563	-108.564705
20499.609375	-113.659149
20585.742188	-115.685745
20671.875000	-117.249321
20758.007813	-121.183075
20844.140625	-128.894547
20930.273438	-125.277405
21016.406250	-120.223068
21102.539063	-118.768517
21188.671875	-121.189972
21274.804688	-126.370583
21360.937500	-129.289307
21447.070313	-136.015060
21533.203125	-136.551254
21619.335938	-137.500153
21705.468750	-137.429504
21791.601563	-141.465286
21877.734375	-138.932526
21963.867188	-138.533112
